AccX_processed,AccY_processed,AccZ_processed,GyrX_kalman,GyrY_kalman,GyrZ_kalman,MagX_processed,MagY_processed,MagZ_processed,PacketCounter,Roll,Pitch,Yaw
-0.6680270722447195,0.035164713475577,0.0959265030495148,-0.0004565181978303,0.0008643425228536,0.0004903224095457,3.116330485394994e-07,-1.9007388664286626e-07,-7.988315469959355e-07,11582,1.307717,0.583667,20.069117
-1.962977913444282,0.1224583636329928,0.2859592265296758,-0.0004136060813681,0.000911547934987,0.0005315283953735,4.928012305739944e-07,-2.240035495134766e-07,-1.2646564863538265e-06,11583,1.27475,0.57768,20.125042
-2.57630194925432,0.1661766542523,0.3770038831059343,-0.0003230436482711,0.0009325100259478,0.0005658520050314,6.281654302643964e-07,-2.355007107962938e-07,-1.6108514151823244e-06,11584,1.237472,0.567929,20.158033
-1.8715366292463436,0.1314818032665937,0.2777035356795244,-0.0001975673552975,0.0009388554395328,0.0005930361223756,7.177256476107053e-07,-2.245653704913178e-07,-1.8374163334814296e-06,11585,1.201735,0.546122,20.286349
-1.9031158237800248,0.1325587369363076,0.2828547014196881,-5.807983989845211e-05,0.0009377620140007,0.0006134037542262,7.61481882612921e-07,-1.9119752859854866e-07,-1.9443512412511427e-06,11586,1.172716,0.531657,20.378263
-1.7797524867962378,0.1268311745227032,0.2647179403183259,7.243271435346499e-05,0.0009335857061022,0.0006274986896681,5.109194439159751e-07,5.1623029454486405e-09,-1.2903470293931078e-06,11587,1.152206,0.537486,20.391713
-1.5214808169873992,0.1120712996935524,0.2265596623151354,0.0001888915703191,0.0009288071087566,0.0006358138076847,4.938833741988222e-07,7.805574828322228e-08,-1.2348586263280123e-06,11588,1.136429,0.546653,20.47644
-1.436487522376274,0.1018220385934669,0.2152204845778029,0.0003005059088528,0.0009234304911195,0.0006391546933708,6.574526934939622e-07,6.5258742514308475e-09,-1.6458121495324808e-06,11589,1.132044,0.560226,20.481486
-1.228268688809434,0.0847441460707103,0.1867837129848638,0.0004094423347244,0.0009178253086362,0.0006380159806806,8.17626229988257e-07,-8.033247516463693e-08,-2.051164673589994e-06,11590,1.131426,0.565087,20.546606
-1.0503939912443765,0.0721104667939996,0.1608176052101712,0.0005136099247463,0.0009127566162845,0.0006326280463468,9.07139977780951e-07,-7.483126254003067e-08,-2.279421599809089e-06,11591,1.131165,0.603406,20.602349
-0.9113225948944076,0.0548289318740175,0.1476088328859139,0.0006187185693639,0.0009073570809144,0.0006236095776501,9.289415053492376e-07,5.117637156219355e-09,-2.3429938006558824e-06,11592,1.130336,0.627066,20.642705
-0.7265748024332503,0.025152721889266,0.1365477446976548,0.0007351876066453,0.0008995784414995,0.0006119094209026,8.860944506336635e-07,8.138081108514606e-08,-2.2490739169133573e-06,11593,1.140001,0.668174,20.752939
-0.562900718384405,0.0022422099624744,0.1228407435836227,0.0008669640851417,0.0008885440509902,0.0005980981178104,8.15913709303992e-07,9.8370899707555e-08,-2.0840895514551023e-06,11594,1.163407,0.703434,20.730118
-0.3715674531795133,-0.0261824820497938,0.1021066897316169,0.0010121325558217,0.0008744402885292,0.0005824504223236,7.810115866657663e-07,5.298391284694742e-08,-2.0027305717046483e-06,11595,1.196082,0.791683,20.689803
-0.1705232862135114,-0.0940713954857229,0.0877422588841945,0.0011664636085738,0.0008576567982243,0.0005652992925729,8.13716407935084e-07,-1.820642362101716e-08,-2.0925901964330105e-06,11596,1.23183,0.850025,20.647571
0.0123868519752343,-0.1907461073951131,0.0706339679239653,0.0013198984882437,0.0008394658062858,0.000546886268448,8.856401979172071e-07,-5.085220573699226e-08,-2.2871963052679253e-06,11597,1.271012,0.878755,20.671696
0.1889091785637977,-0.2809213537237607,0.0405198031013578,0.0014654999081594,0.0008199476651891,0.0005280723925025,8.955704304647147e-07,1.61733848653663e-08,-2.3254280041904267e-06,11598,1.321425,0.891622,20.666788
0.3546460354478229,-0.3573341538232759,0.0101206256597189,0.0015990793234982,0.0007978899209294,0.0005104835158989,7.445520287538255e-07,1.6325875682378238e-07,-1.949175720400565e-06,11599,1.377901,0.877827,20.614414
0.4948278462384473,-0.4067860228890066,-0.0173195698128649,0.0017111638020866,0.0007722979867478,0.0004961939373279,4.230780596582313e-07,3.166974123249875e-07,-1.1338784387816094e-06,11600,1.445751,0.866517,20.431369
0.6080645515686394,-0.4079905958500682,-0.0427266054074326,0.0017881010034312,0.0007418128793905,0.000488102684466,-1.3720856595115138e-08,4.44167401508178e-07,-1.9471203622037493e-08,11601,1.508859,0.866743,20.235401
0.7356934942283669,-0.3774068944210277,-0.0641323479220247,0.0018232702123777,0.0007060569116686,0.0004874698860857,-4.426307645036231e-07,5.271617586098328e-07,1.0848489159847017e-06,11602,1.567658,0.903632,19.96908
0.9056217121314551,-0.3506203567717871,-0.0866287057397502,0.0018167624094092,0.0006659261914387,0.0004937239276711,-7.150039046591728e-07,5.459796810705453e-07,1.801079503249403e-06,11603,1.61784,0.953248,19.799136
1.1041613326998443,-0.3446716459537565,-0.1128470829184683,0.0017708419965726,0.0006226460336337,0.0005058276257255,-7.936085469880355e-07,5.413789915835919e-07,2.027215531331388e-06,11604,1.651666,0.982062,19.62495
1.3093006658885038,-0.3006550013262065,-0.1426029576621606,0.0016935253134564,0.0005783691286919,0.0005213739142209,-7.299960362223466e-07,5.544498901690254e-07,1.889226071159729e-06,11605,1.670638,0.943082,19.426818
1.4848871490401774,-0.1030112885220382,-0.1662040446727221,0.0015900636617657,0.0005359514135869,0.0005378314772483,-5.931583107567494e-07,5.38769159826689e-07,1.5645086837363557e-06,11606,1.695123,0.896557,19.249673
1.592185077138636,0.2092316059701677,-0.1815026287755973,0.0014631601865729,0.0004991885651658,0.0005523729160182,-4.870179614976966e-07,4.5335000087693874e-07,1.3169727445123546e-06,11607,1.729836,0.804352,19.209227
1.6566157796668672,0.4169025244802219,-0.235395618461297,0.0013208430224281,0.0004738597451347,0.0005601247605048,-5.256058241207425e-07,3.683508779674628e-07,1.429930367199066e-06,11608,1.79416,0.691516,19.224955
1.7369078067358186,0.4307875617931593,-0.3506826752599404,0.0011754130049395,0.0004682444021823,0.0005539559042944,-7.420595337246424e-07,3.481454580964823e-07,1.9825464743305054e-06,11609,1.904327,0.655878,19.357373
1.838900673076416,0.374411608247977,-0.4530997445280135,0.0010333732609065,0.0004832342546109,0.000530589021287,-1.0115447993849603e-06,3.3112372252780885e-07,2.653695871506759e-06,11610,2.057134,0.758808,19.463457
1.9363563487215183,0.3403786426765511,-0.4841472326949789,0.0008959785234502,0.0005114687963821,0.000490724410405,-1.1693874801474948e-06,2.639800268459763e-07,3.021552846593721e-06,11611,2.216856,0.942459,19.636569
2.0336345014694737,0.3148821800917044,-0.4873751246450951,0.000763537256464,0.0005416223018701,0.0004360438470146,-1.1890226574358496e-06,1.883787524364699e-07,3.028818273942399e-06,11612,2.361797,1.14183,19.782598
2.1365838342918875,0.2786266732080065,-0.5019074980625918,0.0006325570238044,0.0005542332151688,0.0003712492762786,-1.1023836347728057e-06,9.928175225681045e-08,2.774486640298669e-06,11613,2.467811,1.336645,19.98922
2.204305679266857,0.2282775491299381,-0.507475893696786,0.000504083793804,0.0005433435700694,0.0003001733006497,-8.777215427681273e-07,-6.537701160931826e-08,2.1798521937574963e-06,11614,2.528442,1.445564,20.244814
2.219005470479304,0.1707240070184063,-0.5000455770403309,0.0003842230665773,0.000517964479391,0.0002259404934818,-5.19061652305281e-07,-2.5927656579332853e-07,1.249293787590795e-06,11615,2.544545,1.500329,20.416354
2.2283208294947903,0.1275115076325532,-0.491644809301449,0.0002779670811281,0.0004890165763879,0.0001551041194473,-1.442291099643465e-07,-3.759931020478593e-07,2.886816527564421e-07,11616,2.540704,1.569055,20.495174
2.252942721865597,0.1047508819434651,-0.4791810894684586,0.0001915398319085,0.0004766422618421,9.743063423667472e-05,1.8461455059962082e-07,-4.4095289729119803e-07,-5.377544481969814e-07,11617,2.50314,1.610522,20.616795
2.2730268753570604,0.0909958894303959,-0.4620479114781936,0.0001288839275894,0.0004907340823419,5.7692325550588165e-05,5.415754461922135e-07,-5.282916935738061e-07,-1.4334632585028494e-06,11618,2.449491,1.651595,20.698007
2.2956638826650293,0.0832666373606539,-0.4323035601948775,9.079672668218452e-05,0.0005294355537207,3.576595402744416e-05,9.435949928443592e-07,-5.860446507696291e-07,-2.463969817270058e-06,11619,2.390781,1.675929,20.735615
2.332668166652192,0.0821622548543872,-0.3827885459721942,7.817292556395021e-05,0.0005945149672257,3.0415646399753665e-05,1.3141372174134013e-06,-5.626450706779378e-07,-3.430053001585124e-06,11620,2.329002,1.621847,20.681185
2.369768133485458,0.0813483695981101,-0.3363937535122274,9.062594868056162e-05,0.0006859788282079,3.672570067963432e-05,1.6498347280462347e-06,-5.521670603031155e-07,-4.2983567500780814e-06,11621,2.252722,1.523777,20.751538
2.3853176700941745,0.076587563915221,-0.3109682922047526,0.000127016009735,0.0008053428544394,5.1969109246092685e-05,2.0219089891939176e-06,-6.463191623983111e-07,-5.247047465156106e-06,11622,2.19524,1.430951,20.745762
2.3691906254750137,0.0774540989769979,-0.2821243995051081,0.0001853872229634,0.0009572008068906,7.564387887089928e-05,2.435436355961368e-06,-7.996182984503877e-07,-6.307522831560615e-06,11623,2.185183,1.448782,20.768501
2.337454279297733,0.1027276281019226,-0.2312650900548757,0.0002610422933041,0.0011435318606455,0.0001041261789628,2.809594683496433e-06,-9.554322561474004e-07,-7.274416983553272e-06,11624,2.19402,1.479979,20.764478
2.3077353588489826,0.1550453310010242,-0.1799527454271652,0.0003460154486105,0.0013647357829454,0.0001316121083613,3.1246981676875347e-06,-1.153003173715486e-06,-8.080771647935125e-06,11625,2.219816,1.536198,20.794136
2.2665778024090617,0.2043109736177513,-0.1466573701995612,0.0004365838480688,0.0016209041527992,0.000154925421095,3.4442910601817576e-06,-1.4148633637777986e-06,-8.891373122902402e-06,11626,2.244449,1.607649,20.818192
2.201908572748983,0.2207018381050251,-0.1324033479754001,0.0005332345055919,0.0019107718780007,0.0001730255651539,3.7235582046302215e-06,-1.6669302947997711e-06,-9.60987229327082e-06,11627,2.29459,1.732093,20.79684
2.1277861386699204,0.2174390604834569,-0.1289238912821686,0.0006365311426565,0.0022313708686996,0.0001851862061617,3.814284686360264e-06,-1.8374487531361712e-06,-9.854921579810434e-06,11628,2.376111,1.920681,20.744267
2.055763923274431,0.2154659810137939,-0.1150046944387927,0.0007492632862189,0.002577491562412,0.0001922190134071,3.7122149416658353e-06,-1.935164109628501e-06,-9.593892841297976e-06,11629,2.478676,2.142198,20.729179
2.002011142767316,0.2032421998140897,-0.0879272738332234,0.0008712191301063,0.0029390851305584,0.0001919897052633,3.5596854007560324e-06,-1.990436183421606e-06,-9.186946124882702e-06,11630,2.594317,2.428081,20.715311
1.9759977505425887,0.1770342905606159,-0.0718267335082031,0.0009986327652347,0.0032997966315095,0.0001789839565803,3.4040473636800776e-06,-1.9845833258185625e-06,-8.778301401278874e-06,11631,2.713124,2.718651,20.649573
1.9188503845751748,0.1512363967278451,-0.0758090513125273,0.0011282433832067,0.0036357962055911,0.0001470941008659,3.1665951388045223e-06,-1.9037662792028437e-06,-8.179569713275515e-06,11632,2.8308,3.071593,20.672962
1.7829774745471847,0.1234193069752215,-0.079290963788365,0.001255673106179,0.0039125864942974,8.800415461222602e-05,2.8387395015469483e-06,-1.8121136099293443e-06,-7.353829366662912e-06,11633,2.910398,3.39944,20.639632
1.6260168509282724,0.0888074889800047,-0.0740843638865508,0.0013783686712117,0.0041115577757166,-2.1275758394184003e-06,2.5229162310841677e-06,-1.760645060217084e-06,-6.551522495830373e-06,11634,2.989967,3.830551,20.556495
1.504164681367411,0.0561106847046574,-0.0884722873581421,0.0014961755871721,0.0042308634654965,-0.0001219249667477,2.2362719091777005e-06,-1.7040454801902755e-06,-5.821149198245364e-06,11635,3.078469,4.298068,20.473775
1.4130960535997334,0.0305505796561882,-0.1349339897515818,0.0016087888573061,0.004270267288215,-0.0002688861037561,1.8592265404664744e-06,-1.5981077118951835e-06,-4.855918727509578e-06,11636,3.171788,4.842343,20.347633
1.3278936768522,0.0103151066626895,-0.1776784685739816,0.0017168238678363,0.0042395258440491,-0.000436861980759,1.3373547908389978e-06,-1.4410356686079097e-06,-3.509311479680717e-06,11637,3.249458,5.432168,20.184863
1.1877302002437329,-0.0161299845963115,-0.1900828581700388,0.001820910512626,0.0041417085402873,-0.0006189121870562,7.59124661170851e-07,-1.2211563395305928e-06,-2.0077507514950614e-06,11638,3.298538,6.06928,19.967778
0.9730871523354434,-0.0593427333910694,-0.1917131217035532,0.0019216115841587,0.0039724053136214,-0.0008068083457318,2.048241383853004e-07,-9.395877212523332e-07,-5.608049159764457e-07,11639,3.305811,6.666436,19.728895
0.7800128510118463,-0.0982037595898176,-0.2029616744010903,0.0020209862008963,0.0037355319325044,-0.0009863828682583,-3.20013386266016e-07,-6.396738308852491e-07,8.151083324276925e-07,11640,3.265752,7.193634,19.486809
0.6779181804660201,-0.107814211670657,-0.2247948183547117,0.0021226474594635,0.0034401970071874,-0.0011367006067125,-7.769731916823902e-07,-3.8521424825493357e-07,2.0193379839319723e-06,11641,3.166667,7.656513,19.249566
0.6172684373269657,-0.097559732204784,-0.2658287895221978,0.0022277840810786,0.0030958693001507,-0.0012471264064867,-1.0788140810338897e-06,-1.8982948055421034e-07,2.822449588238328e-06,11642,3.020021,8.082187,19.027487
0.5373488577104366,-0.0904917141793339,-0.3552260957359648,0.002335164496665,0.0027152335839588,-0.0013175037725606,-1.1940277985732924e-06,-1.2067666281123691e-08,3.13523091224124e-06,11643,2.835655,8.486703,18.821205
0.4328874757292446,-0.1065475452739146,-0.4807295790181262,0.0024430576057979,0.002316200788844,-0.0013493535621347,-1.1849603932930618e-06,1.4340534419557529e-07,3.1152411645417424e-06,11644,2.632518,8.815244,18.601245
0.3188785973662277,-0.133115304862635,-0.5524717520779274,0.0025479794659101,0.0019230896434954,-0.0013512364644394,-1.1036423835023278e-06,2.428194500721164e-07,2.902839555064071e-06,11645,2.423015,9.054579,18.356089
0.2118909494407409,-0.1494154325682586,-0.5688116690158436,0.002647322205984,0.0015604543597019,-0.0013273850675332,-8.772400693188915e-07,2.8761638996431345e-07,2.32203577757978e-06,11646,2.21246,9.125962,18.067793
0.1275885776958504,-0.2258192351108294,-0.5794492948432947,0.0027393521434768,0.0012546028474323,-0.0012774312369197,-4.449139597059294e-07,2.8042213293285424e-07,1.2241997653507694e-06,11647,2.00309,9.054824,17.700253
0.0559235983831115,-0.4321532221109726,-0.5641483139818513,0.0028206787614887,0.00104001510393,-0.0012070219750562,1.0259304720882395e-07,2.228056020536148e-07,-1.615784522861057e-07,11648,1.830283,9.014508,17.278422
-0.011891436303747,-0.6640069942125462,-0.7271471292760927,0.0028866067882089,0.000960203021556,-0.001125891701642,6.323480524837802e-07,1.342452846858134e-07,-1.5046974034455925e-06,11649,1.54452,8.580941,16.894312
-0.0324047977680747,-0.7690297235159629,-1.278862836210823,0.0029344510858572,0.001027584879385,-0.0010383932662578,1.018421219437522e-06,5.8389171347753386e-08,-2.4900159400274232e-06,11650,1.280436,8.355372,16.672648
-0.009522627907614,-0.7557987133671872,-1.876303937240756,0.0029634018797709,0.0012196931888135,-0.0009443954415501,1.1371055366217733e-06,6.67570451234107e-08,-2.806408752930461e-06,11651,1.356354,9.232991,16.469055
-0.0304520600783447,-0.7243440527392926,-2.134979185936401,0.0029731802829074,0.0014951221840583,-0.000842674532264,9.612700380596103e-07,1.917615294072649e-07,-2.381311287273161e-06,11652,1.398861,9.577751,16.174821
-0.0828336938653623,-0.7111910628560316,-2.184110889671116,0.0029650508432056,0.0017757837171583,-0.0007283598608464,6.012399676189949e-07,3.790501815108717e-07,-1.4781527929415156e-06,11653,1.246946,9.447532,15.806187
-0.0843804798611654,-0.6926792812119438,-2.171018738484032,0.002939255350532,0.0020197290005712,-0.0006014186429376,1.953373790951958e-07,5.633400497879984e-07,-4.353374047600097e-07,11654,1.120399,9.616531,15.33227
-0.0548843248227105,-0.6746281864233992,-2.022957500195262,0.0028950046959289,0.0022223708147826,-0.0004671661624589,-2.478436506792279e-07,7.510875445814797e-07,7.190073380490639e-07,11655,1.113271,9.949518,14.83843
-0.0167520938407611,-0.6821031008992393,-1.813673522758394,0.0028326923421115,0.0023644419035945,-0.0003303952212566,-8.127130603022951e-07,9.79244781192431e-07,2.1828245233837205e-06,11656,1.215303,10.434872,14.536035
0.0373942674728988,-0.6631753037685604,-1.6493130207532931,0.0027534431334284,0.0024298583801873,-0.0001978961468286,-1.4902028525431411e-06,1.213317395962519e-06,3.920673237846783e-06,11657,1.335823,10.900715,14.308522
0.0151044719909623,-0.5599438698361843,-1.4805022147774638,0.0026577951642463,0.0024126030769071,-7.409297951432029e-05,-2.165700272691509e-06,1.37426165917556e-06,5.637047325418332e-06,11658,1.465263,11.316579,14.02771
-0.1193235625022705,-0.4309940874349808,-1.313611333270634,0.0025459686299063,0.0023140529036138,3.964296833377078e-05,-2.7463856691403733e-06,1.4591345324500113e-06,7.099036484934497e-06,11659,1.552195,11.563247,13.725784
-0.232193886374218,-0.3520500943085606,-1.165401435427241,0.0024183130557156,0.0021554808518901,0.0001409751591124,-3.159550875305396e-06,1.506520093672652e-06,8.132251698543018e-06,11660,1.599736,11.717743,13.484512
-0.2676519172991688,-0.3090479247616712,-0.9981980181044006,0.0022750844728431,0.0019835691345019,0.0002279343666896,-3.322244074282372e-06,1.497913094592796e-06,8.537352608276676e-06,11661,1.622221,11.874249,13.294211
-0.3008954060108009,-0.2656778931453077,-0.8383815866816703,0.002118032652628,0.0018197513766379,0.0002973109801756,-3.244170132952374e-06,1.4261213310542965e-06,8.340158653621156e-06,11662,1.626945,12.028582,13.078426
-0.342653635814205,-0.2169749327849758,-0.6886999398995217,0.0019507190695122,0.001661968082508,0.0003440445225856,-3.069327455930736e-06,1.3661674221356506e-06,7.89817439711631e-06,11663,1.625043,12.111059,12.862883
-0.3414995475806371,-0.1607182892111556,-0.4958371600178248,0.0017779491222166,0.0015155294814116,0.0003628287348664,-2.9786115881448577e-06,1.37211541072694e-06,7.663444371232813e-06,11664,1.659842,12.145601,12.693574
-0.3029483243454766,-0.0896845866689981,-0.2707298231070124,0.0016066656694963,0.0013812470496718,0.0003473091197321,-3.043490816952835e-06,1.3825120964022633e-06,7.812884302125767e-06,11665,1.740075,12.236402,12.575111
-0.2887230043514703,-0.0020506565355823,-0.0698662739263626,0.00144034417437,0.0012585778880244,0.0002944846476214,-3.197446369594237e-06,1.3293846769538424e-06,8.178315392938385e-06,11666,1.840639,12.366557,12.476004
-0.3220483408870338,0.0830572410004878,0.1096037517740454,0.0012786746140951,0.0011475181589755,0.000205350453436,-3.433968129715688e-06,1.2559377630242823e-06,8.756631431869875e-06,11667,1.935892,12.55899,12.360972
-0.3589802232142739,0.140793469251776,0.3251111313437542,0.0011208425754263,0.0010373234537573,8.257535964899471e-05,-3.792589330226307e-06,1.214748109546371e-06,9.660388234191386e-06,11668,2.027573,12.80247,12.249
-0.3807177808094178,0.1853574995416791,0.5800286078526402,0.0009636597036063,0.000905673793567,-6.754122685676456e-05,-4.165060548364338e-06,1.198192142426267e-06,1.0610080987062902e-05,11669,2.068999,12.958639,12.172273
-0.4048346956614784,0.2450282862160397,0.809810601810097,0.0008047383068671,0.0007413246823136,-0.000236715862027,-4.465639925704729e-06,1.236096914154937e-06,1.1380075274673787e-05,11670,2.071801,13.12077,12.094914
-0.4152950939004813,0.318599445594626,0.9675892160347408,0.0006424915581285,0.0005426035787353,-0.0004137597411248,-4.68194873879368e-06,1.344013433705749e-06,1.1938987758983496e-05,11671,2.022021,13.241606,12.031742
-0.4434378013599256,0.3773021371295507,1.0492612462982542,0.0004726439263003,0.0003046655865922,-0.0005806328151425,-4.645041389045879e-06,1.4153596866679462e-06,1.1859123477350904e-05,11672,1.937376,13.35277,11.962339
-0.5889674150060763,0.4016062614455594,1.1310612466939405,0.0002884955422933,2.4494757725842587e-05,-0.0007108571192266,-4.2816212891576365e-06,1.40491070039608e-06,1.0949089417137463e-05,11673,1.801259,13.382,11.885533
-0.8171611559960135,0.4027877392325548,1.2965343829991012,9.087047882631297e-05,-0.0003030978101105,-0.0007907028543109,-3.903210881313866e-06,1.4531865271725366e-06,9.991500381945788e-06,11674,1.614023,13.408352,11.789469
-0.9539251673163744,0.3902696090448596,1.4677378143884647,-0.0001112373691052,-0.0006867932760546,-0.0008195946990456,-3.811755551014974e-06,1.6263208126676954e-06,9.756020589481444e-06,11675,1.4128,13.48402,11.750692
-0.9462183289441576,0.3883898330734715,1.5350233283919004,-0.000304362014987,-0.0011334857663572,-0.0007987477854407,-3.886935532531393e-06,1.7833188073944847e-06,9.948510061969092e-06,11676,1.136391,13.282697,12.064695
-0.8990293809394452,0.4045214218034508,1.5036257329951856,-0.0004663578510719,-0.0016495819875141,-0.0007378412184689,-3.7979729338161407e-06,1.8180510258583789e-06,9.730701398230498e-06,11677,1.169003,14.136842,12.234818
-0.8730413645247717,0.3260080813166256,1.3905896530350497,-0.0005851708557293,-0.0022228871640072,-0.0006411585007027,-3.380683945754705e-06,1.7512378480404197e-06,8.678177484131315e-06,11678,1.146679,14.085601,12.370676
-0.8483496416971621,0.0599895168076082,1.2152529634966354,-0.0006594262590104,-0.002818114150108,-0.0005071342072479,-2.573138731278044e-06,1.5552682781105923e-06,6.629840256236792e-06,11679,0.956768,13.526052,12.542821
-0.8075903276620424,-0.2648032240607316,1.0783900346115147,-0.0006857605857659,-0.0033821028742427,-0.0003413430454116,-1.3242244238344055e-06,1.1871889451672173e-06,3.4593156963730657e-06,11680,0.666492,13.033412,12.617646
-0.7523627430480306,-0.4490733420675136,1.0705086460023223,-0.0006639780186349,-0.0038323019505321,-0.0001540463654329,1.4518113057859685e-07,7.608230525792147e-07,-2.709028138406638e-07,11681,0.395805,12.483943,12.624832
-0.7132121388735868,-0.4673962684734185,1.1554044432334871,-0.0005932473110848,-0.004129203507171,4.952948120010351e-05,1.435655366060485e-06,4.204406417015805e-07,-3.5548344850984768e-06,11682,0.234831,12.044145,12.65517
-0.6818551662532726,-0.4153920931034636,1.251936148350962,-0.0004713266263639,-0.0042794659479024,0.0002678441617363,2.4268164343764497e-06,1.431211119909442e-07,-6.092631669922261e-06,11683,0.124,11.564874,12.666245
-0.5902826522834719,-0.3575594146953259,1.2750293173828564,-0.0003009459631857,-0.0042924105738574,0.0004996177892801,3.2569243752536297e-06,-1.6512886818586033e-07,-8.225157569128404e-06,11684,0.053687,11.028094,12.578972
-0.469220017520535,-0.3115435764852192,1.1994683940201698,-8.955599375082561e-05,-0.0042028088117525,0.0007460506842295,4.016778097796578e-06,-5.100148815718414e-07,-1.0175326796325538e-05,11685,0.003445,10.416651,12.471697
-0.398218896823496,-0.2700892179327874,1.2305538034083805,0.0001558359349001,-0.004026882913977,0.0010010782935561,4.716540994291127e-06,-8.407887908280904e-07,-1.197924907398706e-05,11686,-0.016243,9.802375,12.407536
-0.3410115454719628,-0.2269323883203107,1.5259207335603344,0.0004270493662482,-0.0037594315650671,0.0012501318550472,5.31938991462588e-06,-1.1310678571624682e-06,-1.3546415902002825e-05,11687,0.027718,9.314798,12.360921
-0.2655996793981854,-0.1873001667100861,1.842303237350245,0.0007109501307731,-0.003415538445326,0.0014753555043675,5.726079258398356e-06,-1.3618673522027922e-06,-1.4607655035142644e-05,11688,0.097635,8.838005,12.297134
-0.1894954813738087,-0.14513593076923,1.8911608950357024,0.0009889927303575,-0.0030215397078178,0.0016514852090003,5.932338755554837e-06,-1.5284805086520242e-06,-1.5143298163969672e-05,11689,0.207099,8.419032,12.190946
-0.0681481789080561,-0.0906287570492376,1.7590474451194726,0.0012506867982362,-0.0025926822183247,0.0017657215798684,6.087666625449787e-06,-1.6759248186179092e-06,-1.5547074818205686e-05,11690,0.346947,8.074902,12.051949
0.0838008887420656,-0.0300646111415181,1.653530495810584,0.0014937393510773,-0.0021377139181382,0.0018192680269278,6.222025438229723e-06,-1.8259469834209424e-06,-1.5905666911555953e-05,11691,0.492419,7.800998,11.896289
0.1421224292236855,0.0156261809236438,1.5778010175078307,0.0017170531003298,-0.00166450284021,0.0018151376870412,6.166121261192397e-06,-1.940121289802358e-06,-1.5776189832564703e-05,11692,0.655526,7.658744,11.72808
0.1003645805026881,0.038481615833158,1.4989596271034389,0.0019249395798098,-0.0011755643434831,0.0017649753731564,5.855212243506816e-06,-2.0026051162812632e-06,-1.4978874701770272e-05,11693,0.833202,7.624544,11.558918
0.062249855682624,0.0543654161677475,1.4588820817136012,0.0021173167682062,-0.0006826377675545,0.0016787793717916,5.3907725836534405e-06,-2.010270665909293e-06,-1.3774032328901675e-05,11694,1.007509,7.653571,11.381178
0.0437460613771697,0.0732399356415775,1.437133214573024,0.0022892665514052,-0.0002078080594403,0.0015651152138445,4.739889659662344e-06,-1.8839587767233168e-06,-1.2090121383508907e-05,11695,1.160055,7.739283,11.183265
0.0206582563916812,0.0898559611317216,1.3794317685704385,0.0024395264771224,0.0002257389904736,0.0014435527392434,3.780921423963222e-06,-1.5474444710771036e-06,-9.631239455652633e-06,11696,1.289943,7.868415,10.985164
0.0003855913174807,0.1046931694172201,1.2799926989374162,0.002568366422604,0.0005888272750001,0.001344454348473,2.6541372666060622e-06,-1.0752521781304114e-06,-6.76418295225895e-06,11697,1.399717,8.024203,10.796649
-0.0416551448053252,0.1204186282509389,1.1691159708164274,0.0026728176397602,0.0008636966483256,0.0012815454360979,1.637815893524616e-06,-6.230876050726587e-07,-4.193245633625531e-06,11698,1.501644,8.224492,10.622052
-0.1801620117904291,0.1329471828031878,1.064729594536122,0.0027472450422823,0.0010460703554434,0.0012521290411277,7.58828647301251e-07,-2.5408998991778935e-07,-1.9701734941976475e-06,11699,1.620952,8.481911,10.416763
-0.4366931536840542,0.1511816954723381,0.9646865744146316,0.0027839294611119,0.0011339146052123,0.0012500623073287,-1.3977436494505733e-07,6.028764341128519e-08,3.156032367712682e-07,11700,1.751602,8.674769,10.211826
-0.6782605233059598,0.1639245024497197,0.8648676140693807,0.0027714705557156,0.0011339016360533,0.0012571926682953,-1.0521895519561545e-06,3.180570384224239e-07,2.6478908713723312e-06,11701,1.916196,8.894528,9.977342
-0.8280394947155437,0.1561826991613872,0.7280956680521958,0.0026990693416889,0.0010542413629447,0.0012624771019382,-1.8295751278927968e-06,4.896554027299914e-07,4.6457998172478725e-06,11702,2.111297,8.980122,9.715451
-1.009514030662806,0.2106408548209133,0.5965652238759809,0.0025558974600679,0.0009056392109152,0.0012621641724551,-2.4799757557388425e-06,6.037418310166574e-07,6.3266113894394486e-06,11703,2.361217,9.04674,9.436223
-1.2192472832297154,0.3742765201108621,0.5192110201248512,0.00232686229923,0.0007128297392806,0.0012422139327806,-3.147019880732153e-06,7.142281858862166e-07,8.04163066389737e-06,11704,2.601455,9.017098,9.145885
-1.2751886006002415,0.5435658347439393,0.2527062979026674,0.0019925138117797,0.0005163120566139,0.001181368023002,-3.850341570060543e-06,8.295147111373783e-07,9.829959680398766e-06,11705,2.768948,8.854296,8.932126
-1.1786529551084972,0.703265290331001,-0.3514448947832123,0.0015448106033825,0.0003356443414863,0.00107210177566,-4.479788166342998e-06,9.30584972760774e-07,1.1425176457590584e-05,11706,2.910414,8.553511,8.730939
-1.0816970268777393,0.954349471559676,-0.9523369886568414,0.0009880822303192,0.0001697273709762,0.0009200280502512,-5.0048687846952535e-06,1.0271724011563663e-06,1.276735049977249e-05,11707,3.096284,8.574375,8.476135
-1.0377007348937228,1.2110263392327667,-1.2844664644063215,0.000332439865722,1.639687152737464e-05,0.0007365976901761,-5.482733123732738e-06,1.1461847734070928e-06,1.3992686635217306e-05,11708,3.26809,8.921606,8.096413
-1.0147351280674384,1.2572085404911513,-1.458944730759459,-0.0003998906691357,-0.0001381941182928,0.0005462092287704,-5.838372005135108e-06,1.247619252309431e-06,1.4894283967727284e-05,11709,3.291772,9.062531,7.911816
-0.9322913684766906,1.1442166388221846,-1.5505189397730872,-0.0011828767954718,-0.0002933328868416,0.0003614998750804,-5.843700401736983e-06,1.2209665273216068e-06,1.4896679749935175e-05,11710,3.172301,8.76493,8.046073
-0.7358630433245508,1.1383226545843703,-1.5117900008984368,-0.0019840147225243,-0.0004313100363191,0.0001830169585072,-5.385558641186215e-06,1.0152114777620923e-06,1.3722520405275667e-05,11711,2.996012,8.403655,8.337728
-0.5001554588476489,1.2643223517647626,-1.3480722702334749,-0.002750745261533,-0.0005379665243179,1.7688101398861717e-05,-4.647444278266768e-06,7.232860979874562e-07,1.1834168900648623e-05,11712,2.883569,8.310383,8.672901
-0.26910708158626,1.3176131492037573,-1.0982513702202148,-0.0034068107986805,-0.0005949482845396,-0.0001268458939377,-3.888622419014283e-06,4.4690634095923e-07,9.885114149405686e-06,11713,2.833831,8.210672,9.107284
0.017305911745117,1.2324295544291315,-0.8746888971156045,-0.0039124968904863,-0.0005928207430746,-0.0002458424073303,-3.1603833644895584e-06,1.754212312846096e-07,8.015297446511293e-06,11714,2.794505,8.077811,9.552399
0.3114610060635661,1.072854545033402,-0.7982163214282847,-0.004265662511823,-0.0005342108944244,-0.0003359637343572,-2.431762573084537e-06,-8.359827326016044e-08,6.15291095216385e-06,11715,2.688216,7.930103,9.969131
0.5002785732886782,0.8457360992764916,-0.7896123243041289,-0.0044701812428229,-0.0004225573416952,-0.0003978613260828,-1.717259724160414e-06,-2.803811862049644e-07,4.325260827886665e-06,11716,2.522705,7.846419,10.368067
0.6177618947877708,0.604501541872543,-0.7340315646862378,-0.0045550818648657,-0.0002675050729502,-0.0004374810141027,-1.0014374934482458e-06,-4.696134203331805e-07,2.491629625899335e-06,11717,2.366617,7.849528,10.817796
0.7225077245682529,0.4753172600144351,-0.6540498622773379,-0.0045348472933152,-8.247008150060332e-05,-0.0004602279322508,-3.0248555311088325e-07,-7.18382865768658e-07,7.110418719771514e-07,11718,2.261466,7.871558,11.342215
0.7588633765478805,0.436722228466308,-0.5885825662804363,-0.004408603678863,0.0001145323618733,-0.0004723247884321,2.862034602177539e-07,-9.55723105388761e-07,-7.826153348220468e-07,11719,2.20163,7.889059,11.898322
0.6971414647700473,0.3891072722907663,-0.5538849972869686,-0.0041978611981761,0.0002925913090046,-0.0004860725135521,7.083153483360977e-07,-1.1119232911572832e-06,-1.8631669838684989e-06,11720,2.173161,7.937076,12.401451
0.6231693540361319,0.3341733635221193,-0.5164502873456246,-0.0039401725045825,0.0004051554037552,-0.0005202761943256,9.80294296806356e-07,-1.251902527592288e-06,-2.5703946416403886e-06,11721,2.154883,8.024332,12.849605
0.5865036608529857,0.2882469467224804,-0.4220260897566475,-0.0036534043986501,0.0004296388333429,-0.000583400596113,1.093156115259133e-06,-1.4043837705160843e-06,-2.865949694473473e-06,11722,2.138217,8.112771,13.249416
0.4951148623166529,0.2400998328953972,-0.286152630948328,-0.0033391325987545,0.0003681164215555,-0.0006733703838168,1.0032835831539667e-06,-1.4510163140403766e-06,-2.6371671983162022e-06,11723,2.131708,8.215386,13.591808
0.3073192330568466,0.1930201564780594,-0.1263961386068072,-0.0029964603157983,0.0002264223418779,-0.0007860018676917,7.713264029281766e-07,-1.327861661532254e-06,-2.0482770920567536e-06,11724,2.119912,8.291709,13.872828
0.1158784467657398,0.1494541959434553,0.0656700578167776,-0.0026127767653802,2.668694437140209e-05,-0.0009095834155262,5.249046349479614e-07,-1.111171914317866e-06,-1.424605881223381e-06,11725,2.081837,8.362856,14.07413
-0.0144723117657499,0.1061983194705582,0.2548974471336831,-0.0021959215430174,-0.0002181175740527,-0.0010365817169271,3.124490893522843e-07,-8.486414103828183e-07,-8.808083836505951e-07,11726,1.998256,8.418638,14.191063
-0.0990736712718811,0.0673859898594182,0.35543448791178,-0.0017770986368781,-0.0005047004796034,-0.0011637388090289,1.7421694115239348e-07,-5.38028348924843e-07,-5.194771942688423e-07,11727,1.866448,8.438564,14.213947
-0.2235388492013837,0.0200808135844637,0.3680312175188509,-0.0013901579233039,-0.0008149749195068,-0.0012810427429859,1.93546823718242e-07,-2.4568156373523965e-07,-5.586734928932034e-07,11728,1.692153,8.405271,14.175441
-0.4808732411859931,-0.0679752486172391,0.3615257489905153,-0.0010827039456529,-0.0011200192547856,-0.0013734947383307,3.797237428625693e-07,-5.8800671425166443e-08,-1.0208805221398306e-06,11729,1.477,8.342839,14.119337
-0.7908850207284048,-0.1456365814817568,0.3086481377355294,-0.0008674993883047,-0.0013991553695065,-0.0014305096205866,6.812337893969968e-07,2.8402103736435817e-08,-1.7751800616261013e-06,11730,1.238401,8.243184,14.078632
-0.9438739411533458,-0.1936536868189643,0.2985695317661394,-0.0007160599222825,-0.0016367375464969,-0.0014445924246202,1.0882295428484e-06,8.988866340060558e-08,-2.8061154684156644e-06,11731,1.025755,8.143766,14.097222
-0.909386447342586,-0.4168500196614887,0.3292385464191907,-0.000586602077908,-0.0018138471592905,-0.0014073064712534,1.583526029424475e-06,1.850689334865401e-07,-4.075628046592691e-06,11732,0.848673,7.911205,14.155132
-0.8370091736156551,-0.87203247502709,-0.0584266854193738,-0.0004040299383287,-0.0019114882184036,-0.0013111282141858,2.075526281775936e-06,3.226117969388331e-07,-5.341324289944023e-06,11733,0.520733,7.286721,14.122989
-0.7923349842751946,-1.2138272840546032,-0.8772765233888913,-0.0001371018711987,-0.0019260882501076,-0.001154449047227,2.453940072448045e-06,4.733121954836179e-07,-6.308231276300123e-06,11734,0.007378,6.711393,14.20666
-0.7526548026557529,-1.233688376553746,-1.3687246327425706,0.000196716706131,-0.0018718886670698,-0.0009426121020821,2.647098882036436e-06,6.102920413784441e-07,-6.7896597477696905e-06,11735,-0.322442,6.771421,14.332054
-0.6981872912504217,-1.1335600477083565,-1.268865780018565,0.0005842501486336,-0.0017788761914227,-0.0006883233803306,2.6203421674117917e-06,7.212954778785423e-07,-6.705278297837735e-06,11736,-0.403794,6.931948,14.412226
-0.6369987579613074,-1.0796239290289738,-1.0734121105644467,0.0009933370942363,-0.0017021080255538,-0.0004153322675568,2.408228033159312e-06,7.757491186687464e-07,-6.152247391719106e-06,11737,-0.361595,6.807609,14.282059
-0.5737219743093861,-1.0302385815862736,-1.03297949848127,0.0014001713565066,-0.0016626630952869,-0.0001388937304738,2.1499377945132105e-06,7.475254571000097e-07,-5.487950087953672e-06,11738,-0.265297,6.475971,13.975385
-0.4270724177051781,-0.9609632417314824,-0.970103850362561,0.0017925447206439,-0.0016458593258969,0.0001335667329546,1.9591249227360267e-06,6.875173084883818e-07,-5.002740283721104e-06,11739,-0.182044,6.062397,13.582839
-0.2117707883812128,-0.8874482453962491,-0.7518675814766178,0.0021355041770334,-0.0016371944113902,0.0003885143605779,1.7710839661945649e-06,6.656239687181005e-07,-4.529032697166155e-06,11740,-0.071345,5.781332,13.220388
-0.0818178464116163,-0.8225374384646182,-0.3885264383897651,0.0023752229223866,-0.0016046954885026,0.0006101249720335,1.4560954049863186e-06,6.697945166382108e-07,-3.727998577939416e-06,11741,0.030522,5.581541,12.914482
0.0621975339386859,-0.7588050559433834,-0.0374176910961737,0.0024850193438161,-0.0015359931457323,0.000789381907215,1.0146296634705684e-06,6.568299372943712e-07,-2.595772832690187e-06,11742,0.151872,5.307302,12.610055
0.4187257863427263,-0.6476509063801378,0.1523052526765934,0.0024631411260303,-0.0014423132746816,0.0009235590674656,5.427001931262899e-07,6.222498253465052e-07,-1.3813362345011248e-06,11743,0.332203,5.083676,12.249913
0.7756135082518854,-0.5131871264256479,0.226823974848169,0.0023133638056735,-0.0013268317562458,0.0010151630867747,1.1045886378006467e-07,5.796786383918331e-07,-2.742676323909312e-07,11744,0.496861,4.77417,11.891274
0.8419362034894946,-0.4364475049354072,0.2462652010238748,0.0020584164053713,-0.0011951617264469,0.0010755586298107,-2.443068272768193e-07,5.463546833524585e-07,6.261478606630655e-07,11745,0.630698,4.527022,11.633177
0.7281705659920998,-0.4124900692310462,0.2643187826342927,0.0017149608814458,-0.0010517007226103,0.0011102073333122,-5.107810260898461e-07,5.608859098624389e-07,1.3022089648395351e-06,11746,0.735508,4.369623,11.509665
0.655233872423359,-0.386782640261528,0.3645453221607884,0.0012945140389243,-0.0008964781824263,0.0011192995370818,-7.150969536593684e-07,6.402998744968736e-07,1.8258260335318768e-06,11747,0.849455,4.360242,11.504406
0.6171470176889621,-0.3508738969454231,0.5244674930878391,0.0008296179290479,-0.0007350992993865,0.0011090130336453,-8.985087412616853e-07,7.243449799792751e-07,2.29579702834756e-06,11748,0.949797,4.372237,11.559317
0.5010304156781339,-0.3269170804515253,0.6679932792234818,0.0003721827532925,-0.000577564733657,0.0010890288048112,-1.0759559117598773e-06,7.412894018848426e-07,2.744591309614231e-06,11749,1.037148,4.436117,11.690466
0.3034760015159389,-0.313910189620013,0.7688671580087845,-5.366456030076231e-05,-0.0004356756339837,0.0010657137910053,-1.2026852806679608e-06,6.852942097339103e-07,3.0635624657051984e-06,11750,1.106276,4.502477,11.901356
0.1163128081976316,-0.291779049009859,0.8599609867279063,-0.0004503670232378,-0.0003254763910137,0.0010433463552502,-1.2923488917842398e-06,6.024850335501659e-07,3.294983842846776e-06,11751,1.153453,4.537468,12.147203
-0.0559539999789289,-0.2579188263065364,0.9411364460726084,-0.0008249429027363,-0.0002692791171815,0.0010262403091396,-1.4952000453573062e-06,5.519672469621033e-07,3.816588466714003e-06,11752,1.236233,4.587496,12.402938
-0.2971248809939729,-0.2223236981915477,0.9559902658477653,-0.0012030027899962,-0.0002975688840683,0.0010173583682387,-1.8782876023305036e-06,5.491785461281206e-07,4.791059267165095e-06,11753,1.351999,4.654706,12.650551
-0.6038547935497763,-0.1966799184768327,0.896710677758062,-0.0015941779535554,-0.0004071558007642,0.0010139724222069,-2.267384563941725e-06,5.19149744155956e-07,5.775217809922613e-06,11754,1.499207,4.704203,12.864137
-0.8539589123456665,-0.1649474635751088,0.8089889399681618,-0.0019906673622739,-0.0005562248568339,0.0010063799742693,-2.4178600852949446e-06,3.520144785326842e-07,6.147171507130592e-06,11755,1.689075,4.667811,13.047878
-0.9231759512514048,0.0050102638316168,0.783264847094006,-0.002396096382789,-0.0006810623369538,0.0009773762470416,-2.274567447399564e-06,3.004185842371804e-08,5.766400445325771e-06,11756,1.861089,4.585452,13.296429
-0.8498629549206443,0.4142250136881725,0.7136919001785125,-0.0028177401341245,-0.0006765762108422,0.0008986176586648,-1.990635842347003e-06,-3.6490455759896194e-07,5.031136753949944e-06,11757,1.928327,4.273449,13.59677
-0.8435620176085878,0.8403250368404558,0.2384134785674789,-0.0032516958613253,-0.0005116206043039,0.0007586638130279,-1.6944136643052887e-06,-7.572892936403262e-07,4.278435643217298e-06,11758,1.890238,3.62474,13.974068
-0.964028183868773,0.978977315892649,-0.5247034844132877,-0.0036844590232806,-0.0002370139569091,0.0005639965145768,-1.405849937652923e-06,-1.0830038039980991e-06,3.5533042947662845e-06,11759,2.036124,3.272166,14.342356
-1.0352687816147792,0.8967928414295664,-0.926869462317641,-0.0040932734244046,8.106904529543561e-05,0.0003229249786205,-1.1554383009443274e-06,-1.2729171441702677e-06,2.9182173429521767e-06,11760,2.284235,3.64588,14.573399
-0.9426134530693816,0.8295866204659712,-0.8378122096472678,-0.0044404108389769,0.0003207867868815,5.450698231259114e-05,-9.295510856315112e-07,-1.3404447104874856e-06,2.335648858569694e-06,11761,2.300462,3.740835,14.917265
-0.695992019844985,0.7818147429498844,-0.7107492370787438,-0.0047055703761651,0.0004347718121362,-0.0002253594884677,-5.806705649995943e-07,-1.383138331874543e-06,1.4381086002649723e-06,11762,2.167506,3.944073,15.485913
-0.381504794990421,0.6737794658696719,-0.6960187267004354,-0.0048861748575639,0.0004604412693212,-0.0005039609322645,-1.0094906212887928e-08,-1.4535485230753991e-06,-2.2529599175815484e-08,11763,1.921511,4.063466,16.24133
-0.153918844882948,0.5567355366316781,-0.6418858450814988,-0.0049768848720295,0.0004267858347067,-0.0007558280179234,6.920918039505119e-07,-1.5127396809394325e-06,-1.8176661723771032e-06,11764,1.706362,4.15847,16.94959
-0.0345307531811538,0.4813371611788645,-0.5335871668530265,-0.004978305929625,0.0003942770448207,-0.0009436669867491,1.360484514346025e-06,-1.503233651684659e-06,-3.519501338832048e-06,11765,1.487217,4.198865,17.488633
0.1238284536899349,0.4219867200008351,-0.4073220950513755,-0.0048906844234896,0.0003872189449818,-0.0010535222586556,1.894620328568073e-06,-1.4020171815834584e-06,-4.866964327686128e-06,11766,1.245164,4.258693,17.863469
0.3623796535535117,0.352588366290619,-0.2956949467133492,-0.0047129758911545,0.0003831740274013,-0.0010953240616669,2.3186564634659427e-06,-1.241665712361156e-06,-5.92995108697448e-06,11767,1.005786,4.33513,18.2435
0.5701492975446161,0.2803186111529177,-0.2358121654484818,-0.0044538461449816,0.0003765587316355,-0.0010879111953761,2.712331294635015e-06,-1.121847898771006e-06,-6.920706259925273e-06,11768,0.809324,4.43845,18.684537
0.6659363139280567,0.2245982322040783,-0.2002925035980592,-0.0041317738385311,0.0003584585880919,-0.0010714576937809,3.09966279604604e-06,-1.130511441391208e-06,-7.899067520563183e-06,11769,0.664231,4.542416,19.151853
0.6544277444859709,0.190008315547322,-0.1503851176396487,-0.0037547635810128,0.0003236526853661,-0.0010653074570776,3.4329676959131814e-06,-1.2355492649006216e-06,-8.74011384837828e-06,11770,0.571334,4.677958,19.592561
0.594009942085521,0.1749347242117618,-0.049270292927359,-0.0033215060280219,0.0002775979400243,-0.0010667738461277,3.6410853068501776e-06,-1.3239135233405722e-06,-9.264033248158268e-06,11771,0.509208,4.819072,19.987741
0.5373514142482432,0.1703029727959049,0.1098094547076983,-0.0028321022190644,0.0002177119145984,-0.0010825979850128,3.747242069188759e-06,-1.3402084782796506e-06,-9.531580141996492e-06,11772,0.463052,4.937849,20.361612
0.4951981947533492,0.1610264599606998,0.2877154278911329,-0.0022831469857079,0.00013673239956,-0.0011186205282471,3.829730007587234e-06,-1.2934758100593703e-06,-9.74231770868924e-06,11773,0.417749,5.015646,20.707402
0.4574740188387675,0.1475478023552416,0.4715536171199014,-0.0016839272836922,2.8316639256365417e-05,-0.0011773014119538,3.823065661345651e-06,-1.1731298629994616e-06,-9.73041287611519e-06,11774,0.381398,5.123064,20.967167
0.4021248056800172,0.1322854949570246,0.6305644072324651,-0.0010593074022921,-0.0001159409686991,-0.001260138115801,3.621915790471084e-06,-9.88018876323584e-07,-9.224517821121275e-06,11775,0.339566,5.186182,21.117053
0.2733926439434092,0.1104963162373431,0.6720563201428084,-0.0004404593049539,-0.0003074830402905,-0.0013605722541816,3.2837641408087155e-06,-7.994890049633947e-07,-8.36616570243796e-06,11776,0.282372,5.256947,21.139124
0.0128943229643413,0.0706508295380376,0.6212796149512636,0.000127697969093,-0.0005613441776808,-0.0014624607344539,2.9444202756296395e-06,-6.49563608391264e-07,-7.5009140026020255e-06,11777,0.18697,5.270183,21.025812
-0.3339532355953899,0.0098558498875317,0.5792126052001987,0.0006226137106524,-0.0008651803716517,-0.001552894992443,2.71947943386562e-06,-5.455583502719817e-07,-6.925654547009608e-06,11778,0.055864,5.260217,20.8161
-0.6410785357549705,-0.0252804921082057,0.5084663471594169,0.0010467754949819,-0.0011745014242001,-0.0016199644134579,2.744451777283429e-06,-4.824204147015317e-07,-6.989141645250168e-06,11779,-0.15001,5.090519,20.637142
-0.84009989745367,-0.0567634264911848,0.4866931119412067,0.0014053350979471,-0.0014231859949976,-0.0016432126236433,3.14643312589005e-06,-4.462312959872109e-07,-8.015491648020054e-06,11780,-0.383505,4.941506,20.513356
-0.9342487789578966,-0.2549475276144521,0.5225087725536539,0.0017183050644381,-0.0015072509275907,-0.0015942045747678,3.852711740953836e-06,-4.159837606899607e-07,-9.816034393806432e-06,11781,-0.631035,4.603774,20.375244
-0.9435801601229944,-0.6290667100389437,0.150391908987126,0.0020011010062622,-0.0013968300671139,-0.0014591473792992,4.514796524299816e-06,-3.500278786899111e-07,-1.1500861303380412e-05,11782,-0.926608,4.020998,20.157806
-0.9192278878031674,-0.9038353486044686,-0.6803526061937442,0.0022644121617282,-0.0011443367518407,-0.0012392338381862,4.794858642901026e-06,-1.9781464944171757e-07,-1.220785799232012e-05,11783,-1.391279,3.400234,20.064769
-0.8977460447062987,-0.9323240929733668,-1.2018887346010554,0.0025363626603305,-0.0008229802073803,-0.0009404890636708,4.614404006106081e-06,6.410875644985688e-08,-1.1736437926590616e-05,11784,-1.599142,3.886465,20.017377
-0.8432758368187089,-0.8574335428242883,-1.1062584433435882,0.0028610550298374,-0.000567490220199,-0.0005815671178818,4.055003348374472e-06,3.911315971009169e-07,-1.0294830857079772e-05,11785,-1.643282,4.238869,19.938641
-0.7486891858489964,-0.800280797687566,-0.9327849104487212,0.0032481880991298,-0.0004302149136411,-0.0001782641410463,3.247351404785766e-06,6.758500798800475e-07,-8.218417215010805e-06,11786,-1.468465,4.489237,19.615057
-0.6419260524168097,-0.7470055326140443,-0.9269115643623878,0.0036717968266899,-0.000370988762172,0.0002553897314174,2.3777158991880382e-06,8.522562593782573e-07,-5.986357615215957e-06,11787,-1.258657,4.304444,19.131561
-0.5378822122783564,-0.680015587683289,-0.7932173612558825,0.0040910478495804,-0.0003574733224706,0.000690534955454,1.6209884614639447e-06,9.584969499101338e-07,-4.042234352394061e-06,11788,-1.118138,3.969462,18.577419
-0.4578254295304343,-0.6052998494863574,-0.4693037545258508,0.0044317135277649,-0.000321256626545,0.001083851466171,1.0221892239478274e-06,1.063565349885137e-06,-2.4950659572857628e-06,11789,-0.976431,3.797031,18.046483
-0.2612513420017436,-0.5386120931899898,-0.1748989078588251,0.0046573802720205,-0.0002353616509899,0.0014127529249663,4.861146951393186e-07,1.1752889338665655e-06,-1.1040037573862052e-06,11790,-0.765016,3.735615,17.564228
0.237758028168506,-0.4814151253922087,-0.0436974126776576,0.0047721280936768,-0.0001256271692349,0.0016748103145426,-1.03030082488105e-07,1.265660320405703e-06,4.179699245303904e-07,11791,-0.487139,3.663318,17.100878
0.8053281096781895,-0.398967644354632,-0.0223239975171408,0.0047705873278433,7.18699170453984e-07,0.0018707034593818,-7.928086971769503e-07,1.3520341557226714e-06,2.183594071730137e-06,11792,-0.205022,3.552414,16.631297
1.0315294762709613,-0.2873805613258207,0.0094005064443763,0.0046572341300935,0.000132114940024,0.0020147647590001,-1.5748596709028236e-06,1.4686146498671655e-06,4.17205576996269e-06,11793,0.069349,3.440031,16.148251
0.9548532930531396,-0.1939917309843126,0.0440188541950043,0.0044372766131724,0.0002613922707049,0.0021112876543977,-2.4358858736406603e-06,1.613366416959878e-06,6.359307189707732e-06,11794,0.339673,3.401534,15.695999
0.8574623633639225,-0.145651316150098,0.0949990436412345,0.0041136579629925,0.0003935297382774,0.0021537039694216,-3.3433435165933844e-06,1.7631177170464918e-06,8.669142242284823e-06,11795,0.578064,3.435536,15.310844
0.8060512188594366,-0.1262098301570864,0.2448426912522838,0.0037085432445373,0.0005239601397934,0.0021455690503849,-4.154213500682753e-06,1.8749812416759103e-06,1.0737218873739698e-05,11796,0.773829,3.517438,15.041195
0.7612509109601772,-0.1129245977143861,0.4254154959219803,0.0032639390742007,0.0006424134425089,0.0020958593522503,-4.679942475895345e-06,1.8984820111245928e-06,1.2079328016126013e-05,11797,0.960598,3.625799,14.892472
0.6582314137523693,-0.0880958326628421,0.545148390173291,0.0027999702199516,0.0007387082073119,0.0020131458541903,-4.8816490944000464e-06,1.810313538280268e-06,1.259288618384398e-05,11798,1.14612,3.719145,14.828942
0.3975452136530517,-0.0236954826031573,0.6562901624382049,0.0023170419870176,0.0007990473536772,0.0019088923798973,-4.918435942718725e-06,1.6501040092067964e-06,1.268337006618418e-05,11799,1.326087,3.795955,14.863635
0.0707806097621436,0.0801194719297493,0.7743851862465599,0.001817843265192,0.0008048217600908,0.0017987827670382,-5.027507869072371e-06,1.5264827534518285e-06,1.2954075473463328e-05,11800,1.505122,3.845977,14.935228
-0.1421828461214384,0.1498432013318135,0.8175496550137025,0.0012969955841019,0.0007313482346711,0.0017035797735604,-5.312636396318593e-06,1.4993054486295478e-06,1.3667493314295714e-05,11801,1.674985,3.866476,14.992169
-0.3008029581003344,0.1672377846868196,0.7624172104897351,0.0007566521197389,0.0005806250546904,0.0016280705473054,-5.619995174053263e-06,1.4826196578165256e-06,1.4434664748824972e-05,11802,1.839367,3.827347,15.01017
-0.50595512583046,0.2527422051286437,0.6781649166139861,0.000208489713666,0.0003854269017439,0.0015589228639624,-5.68402272248234e-06,1.334684881231887e-06,1.4581524245093654e-05,11803,2.060335,3.919058,14.972606
-0.5971595235221432,0.4590922535417496,0.6647632188284431,-0.000341662305219,0.0001963252649094,0.0014738359290264,-5.388155792029889e-06,9.784263679404262e-07,1.3806264108752315e-05,11804,2.272548,3.988158,14.972314
-0.5170847183691187,0.6841341528694728,0.5826866965731681,-0.0008898865726372,9.72098681946993e-05,0.0013323674764335,-4.869626827861887e-06,4.432268117998097e-07,1.2452921077552353e-05,11805,2.389869,3.681634,15.164018
-0.5727833658787873,0.8368647467465364,0.0619866703441669,-0.0014276834925528,0.0001173385251629,0.001114737795672,-4.368961880999324e-06,-1.4254620027830845e-07,1.1139512680723353e-05,11806,2.446249,2.956528,15.575411
-0.8782429066023482,0.8922714715783442,-0.7410312195766442,-0.0019431423517021,0.0002259299558823,0.0008231250778891,-4.011175783595901e-06,-6.292575605546527e-07,1.01989587026459e-05,11807,2.677415,2.599501,15.988737
-1.1359219115437669,0.862751882548701,-1.1456475208114014,-0.0024207702016996,0.0003844907408947,0.0004549220655488,-3.769568695154588e-06,-9.39935697501098e-07,9.568705857464076e-06,11808,2.936169,2.803019,16.254933
-1.1069090373396906,0.8177319554434563,-1.0304377124733188,-0.002839332837339,0.000517351895401,1.3276707085262737e-05,-3.508031484640708e-06,-1.1026176139697791e-06,8.892074113897059e-06,11809,3.000452,2.963097,16.520067
-0.7598547821291382,0.8105093831192873,-0.8879625174461845,-0.003186121314199,0.0005934629701429,-0.0004837949873123,-3.045198640158996e-06,-1.2066575621411729e-06,7.70378683811464e-06,11810,2.874045,3.255568,16.933783
-0.2261996290694725,0.7942890084086895,-0.8703747259592197,-0.0034573996542332,0.0006330473631834,-0.0010019597466537,-2.363902224420321e-06,-1.2797146658921215e-06,5.969101890935771e-06,11811,2.537912,3.289837,17.585536
0.1771129546965886,0.7384699911174685,-0.7527544082862615,-0.00365019625841,0.0006448755037451,-0.0014821046312402,-1.647287718975492e-06,-1.2491555116276875e-06,4.150153017961434e-06,11812,2.231132,3.527469,18.273707
0.3002678440507259,0.6894985311260042,-0.5065906013101469,-0.0037667536429776,0.0006499523708106,-0.0018311422823345,-1.0306977561727569e-06,-1.0746695267436367e-06,2.577408089071149e-06,11813,1.899127,3.573911,18.81733
0.401424899497428,0.6333330735908614,-0.2906674957761038,-0.003806825455164,0.0006568170524782,-0.002008898612462,-5.225865747077049e-07,-8.113121841263575e-07,1.27743780595396e-06,11814,1.542818,3.888183,19.09154
0.6466452301833057,0.5073259635441498,-0.19688809257998,-0.0037674226836663,0.0006549191553234,-0.0020307287436103,-7.27443913446918e-08,-5.397930481301161e-07,1.3906057236982976e-07,11815,1.145158,4.188004,19.332992
0.8335849922847061,0.3405782695700792,-0.1457649832805637,-0.0036508531642963,0.0006448305506262,-0.0019197063295788,3.8525669484653973e-07,-3.162923370713084e-07,-1.009007749011548e-06,11816,0.772624,4.378741,19.747774
0.8362411309090703,0.219533324392786,-0.0375644095344127,-0.0034636728555562,0.0006307815444762,-0.0017344895680388,8.273322372149335e-07,-1.639556366494379e-07,-2.124851828367253e-06,11817,0.482714,4.508613,20.254201
0.7594260326554823,0.1681377473018954,0.0530674864125461,-0.0032082442701952,0.0006117720697953,-0.0015098330858774,1.1470911969775978e-06,-9.288155895363753e-08,-2.9455658483811902e-06,11818,0.29238,4.612654,20.746906
0.698018294914817,0.1466516018102467,0.0908637844301944,-0.0028836369414248,0.0005846574433624,-0.0012543652735685,1.2870830782615311e-06,-9.642495796803623e-08,-3.317012174859813e-06,11819,0.216816,4.754132,21.137535
0.6575096680289706,0.1268549144782234,0.1995902227045044,-0.0024894555005718,0.0005426039424177,-0.0010054492258491,1.3038953350103129e-06,-1.376744027305866e-07,-3.38112698280811e-06,11820,0.213853,4.861004,21.442989
0.5962829302206656,0.1108536256292184,0.4053266056419226,-0.0020239698171255,0.0004731356467674,-0.0008180558601706,1.352881211562796e-06,-2.078715111920454e-07,-3.535077773789185e-06,11821,0.236099,4.947248,21.710494
0.5128962504231411,0.0900475270303033,0.5746146944881365,-0.0014920252601883,0.0003674123913843,-0.0007158468066229,1.546618652994642e-06,-3.394433797704277e-07,-4.0570093062855365e-06,11822,0.265207,5.028377,21.953774
0.4488510952242553,0.0651765485897973,0.632478521509522,-0.0009064467177484,0.0002195062127009,-0.0006943597347507,1.842185931105909e-06,-5.188211884663776e-07,-4.827446755163464e-06,11823,0.283327,5.092192,22.145355
0.3236740131914646,0.0531095040680687,0.6239009424802426,-0.0002841307815451,1.9863774195038653e-05,-0.0007355660126631,2.089272400531693e-06,-6.6050850293767e-07,-5.4624353741882e-06,11824,0.262585,5.146044,22.252182
0.0023649626972705,0.0294472386216886,0.6065313238096814,0.0003500893617482,-0.0002432728717276,-0.0007921197097129,2.1911230076041905e-06,-7.250259984795374e-07,-5.7213932527086486e-06,11825,0.210331,5.228014,22.265179
-0.3928535615899705,-0.0085050786162806,0.5837592283313495,0.0009816725350639,-0.0005586534343913,-0.0008412375793683,2.3040725674338687e-06,-7.983043902805488e-07,-6.008004916408508e-06,11826,0.127525,5.260239,22.244089
-0.5558882993320678,-0.0765323949646304,0.5226779454460593,0.0016072215617028,-0.0008884844963841,-0.0008847487449992,2.688241666502788e-06,-9.42807550338694e-07,-6.986210163015204e-06,11827,0.049753,5.23763,22.237235
-0.4709250804147858,-0.3043425597111893,0.4948876615970206,0.0022225396146841,-0.0011750798634696,-0.0009082379289301,3.342686108225449e-06,-1.0878969796232697e-06,-8.65178335255238e-06,11828,-0.030098,5.049093,22.149558
-0.5159763935178217,-0.6725607534144115,0.4829154061679753,0.0028280458837027,-0.0013272735382736,-0.0008925209635172,4.0398932450980746e-06,-1.1473450368950228e-06,-1.0420343409294142e-05,11829,-0.163372,4.675874,21.963578
-0.9134327692856083,-0.91858068018719,0.1725457212341848,0.0034175840490458,-0.001318953792344,-0.0008285036952799,4.540689447019327e-06,-1.080012017865307e-06,-1.1681390440037206e-05,11830,-0.574522,3.71015,21.724348
-1.413683852572729,-0.9411741118725472,-0.4368125845716725,0.0039768269127374,-0.0011958906719553,-0.0007139522924464,4.652164898199013e-06,-8.666480604470025e-07,-1.194976025756185e-05,11831,-0.970645,3.532506,21.401113
-1.6054842052864369,-0.8911563401398428,-0.8063331442879957,0.0044925490137647,-0.001022096900549,-0.0005548282693238,4.303361301211903e-06,-5.461391104833605e-07,-1.1049825060676304e-05,11832,-1.084157,4.026615,21.041046
-1.274372354909659,-0.8504382246378867,-0.7346401904290016,0.0049489620222641,-0.0009154817822121,-0.0003700258900076,3.6285058855808327e-06,-2.1153649086035426e-07,-9.324023608836709e-06,11833,-0.995888,4.454608,20.617179
-0.6034463808804326,-0.8010692975324105,-0.6192892050804752,0.00533171124475,-0.0009164992682492,-0.000170219225901,2.893147238057373e-06,6.554162310004735e-08,-7.448086133710479e-06,11834,-0.805429,4.461558,20.120817
-0.0595995617827507,-0.7277165757599716,-0.6225019561600944,0.0056286385776837,-0.0009782340418361,4.07495624171019e-05,2.273258064964208e-06,2.966881114124512e-07,-5.870215682619647e-06,11835,-0.787039,3.943711,19.524345
0.1007796593089065,-0.5844032860857832,-0.4940557856925808,0.0058246104838776,-0.0010555572526141,0.0002502091396343,1.7559022437160609e-06,5.299724068351945e-07,-4.554305914825904e-06,11836,-0.88006,3.400217,18.784167
0.2014331188756301,-0.411993720321363,-0.2148143450858883,0.0059023087130125,-0.0010634723639899,0.0004399146974445,1.271832539544544e-06,7.372513057048198e-07,-3.313684669408238e-06,11837,-0.841725,3.125204,18.064586
0.6570691463650153,-0.3166913094788013,-0.0166860811172362,0.005856453459794,-0.0009691361224422,0.0005993622583685,7.658941100687843e-07,8.455977862666246e-07,-2.0031411420185478e-06,11838,-0.685265,2.857987,17.4663
1.2368250905954006,-0.2807135872209856,0.032841079919144,0.0056952222214633,-0.0008034422035771,0.0007245725387397,1.995650778195175e-07,8.449910640340441e-07,-5.339262565756984e-07,11839,-0.467944,2.672719,16.959189
1.4578080227054482,-0.2502962354176523,0.0594455706924887,0.0054360924655234,-0.0005853488464182,0.0008135689181025,-3.946508873077252e-07,7.894560221472314e-07,1.0013944227142471e-06,11840,-0.247667,2.445454,16.489748
1.326125418098252,-0.2281339641455275,0.1010528635305142,0.005112772746721,-0.0003506585089591,0.0008701187948745,-9.730199420602918e-07,7.668524394437872e-07,2.489408809430248e-06,11841,-0.020181,2.33371,16.08454
1.190257639230858,-0.2184211079063976,0.0972319821209296,0.004746967026495,-0.0001229249219695,0.0008970048938019,-1.5547077243347383e-06,8.465290012551783e-07,3.980549152756875e-06,11842,0.168422,2.3148,15.723782
1.1405224994369374,-0.2196422816860893,0.1583637339132659,0.0043489408812754,9.364918421069823e-05,0.0008966533117306,-2.1531529721419844e-06,1.0214842955081691e-06,5.510469537961003e-06,11843,0.299606,2.393181,15.3971
0.975341075023718,-0.2154545203508035,0.3930165766282119,0.0039388960341561,0.0002761491164156,0.0008785782360379,-2.720283691558192e-06,1.2343263196849736e-06,6.958935122044737e-06,11844,0.41386,2.590422,15.169798
0.6576050761841055,-0.1984855351073871,0.6652104692778757,0.0035415354138803,0.0003901120029494,0.0008594606228727,-3.224984832630672e-06,1.3936450772153298e-06,8.25097076472145e-06,11845,0.522377,2.773649,15.070692
0.2849516170564186,-0.1806310742282529,0.7992223743753597,0.0031646467953748,0.0004221001002267,0.0008453028929509,-3.7186031846412776e-06,1.414026672118363e-06,9.518035302093432e-06,11846,0.653467,2.920945,15.041854
-0.0894563944860764,-0.1453478553794239,0.7952630919711204,0.0027988095963242,0.0003773246270631,0.0008315608544859,-4.222360830309114e-06,1.318948495187615e-06,1.0813653685252523e-05,11847,0.804657,3.062194,15.003168
-0.4173593301285594,-0.1245632980358694,0.7379460717656442,0.0024216747615708,0.000270593714425,0.0008118913836753,-4.668499850028523e-06,1.2096030707778388e-06,1.1967872209167129e-05,11848,0.964629,3.161132,14.9612
-0.6554626766990298,-0.1293008206112431,0.6571355422574139,0.0019886072080287,0.0001367659500004,0.0007726799512103,-5.003637610131237e-06,1.1415978498347047e-06,1.284117183675206e-05,11849,1.143125,3.249508,14.864965
-0.687888284882178,0.0183156563578614,0.6300867403892911,0.001473853672542,-4.0761307128016875e-07,0.0007082879029069,-5.211414829447168e-06,1.1008786513343375e-06,1.3385130633498474e-05,11850,1.314256,3.317486,14.734753
-0.5829715447236486,0.3866941013087004,0.5860561493138952,0.0008700186800745,-0.0001270918680033,0.0006220006058682,-5.265224534867202e-06,1.051747191635226e-06,1.3533905344173467e-05,11851,1.428383,3.318273,14.598742
-0.7166710326621681,0.7204558228852883,0.1831525564448364,0.0001584088915582,-0.0002130984161876,0.0005142813535487,-5.149160124737394e-06,9.664006758555668e-07,1.3248149132370557e-05,11852,1.395049,2.767579,14.597382
-1.1097905970691664,0.8219937530696857,-0.499257619008103,-0.0006821599904033,-0.0002162932112673,0.0003868772896489,-4.923732310999929e-06,8.233420556909311e-07,1.2673114921124766e-05,11853,1.508238,2.57258,14.663955
-1.3610823732948176,0.789819534586659,-0.8714733130503101,-0.0016367481938895,-0.0001241388605821,0.0002413264311134,-4.64281498103004e-06,6.105684479056793e-07,1.1939975055295184e-05,11854,1.637959,2.537053,14.713701
-1.27518792185292,0.7761752427274613,-0.7936676479775894,-0.0026505395493144,4.55457063836545e-05,7.793490815389322e-05,-4.209246040582437e-06,3.432179555696011e-07,1.0804948826759177e-05,11855,1.6868,2.43617,14.915576
-0.8705035858397969,0.8036842392287105,-0.6789477269054658,-0.0036339029475972,0.0002589952756833,-0.0001001972139383,-3.550938024861897e-06,6.968857052903253e-08,9.089374046385591e-06,11856,1.640954,2.479627,15.368175
-0.3206760350173536,0.8169567768496044,-0.6671453551448033,-0.0044412999983248,0.0004504533068697,-0.0002874071657345,-2.794054219853797e-06,-1.5638236322798577e-07,7.12238514435475e-06,11857,1.48571,2.496369,16.126234
0.0368292429909704,0.7776221325839487,-0.6028901748696176,-0.0050065744574834,0.0005946274811543,-0.0004748132491898,-2.031831763821376e-06,-3.209801995337512e-07,5.154426432566503e-06,11858,1.290095,2.542351,16.973707
0.2038472755113153,0.7178006490438649,-0.4999749533032653,-0.005347698423248,0.000709523025354,-0.0006486586202327,-1.1886613419848672e-06,-4.458678173506068e-07,2.996432744202833e-06,11859,1.02765,2.464583,17.691373
0.4754631354487182,0.6280483757014994,-0.4202139957681575,-0.0054857618588883,0.0008087572304947,-0.0007892536486251,-2.381495441743141e-07,-5.491095499501168e-07,5.692769113534061e-07,11860,0.737006,2.611684,18.198844
0.7856228033536999,0.4637506445967078,-0.3564168888739969,-0.0054865464613482,0.0009224900616348,-0.0008686012943455,6.748538294678091e-07,-6.479196529451184e-07,-1.7668882566741871e-06,11861,0.461794,2.807589,18.646141
0.9171109337629004,0.3066249520950572,-0.3120995407494187,-0.0053785987538163,0.0010548155240128,-0.0008785895274239,1.4085456406016768e-06,-7.777166734618763e-07,-3.6454171101131546e-06,11862,0.239339,2.962614,19.204096
0.9338258022713696,0.2375581713598497,-0.2709825938981569,-0.0051467584893195,0.0011769898334665,-0.0008331927847198,1.9926171369727865e-06,-9.571997090630413e-07,-5.138097232397213e-06,11863,0.083858,3.114052,19.819687
0.8867219715241712,0.216525822355304,-0.2254841026374391,-0.0048075021165135,0.0012622473830781,-0.0007548222754819,2.4689871218969877e-06,-1.1239831231011044e-06,-6.356966800556496e-06,11864,0.003369,3.31482,20.363533
0.8016203336870643,0.200183173899815,-0.1482218990175965,-0.0043901514950109,0.0012709997330526,-0.0006854184243306,2.7214175857515152e-06,-1.171676339758545e-06,-7.005227448016252e-06,11865,-0.027659,3.507892,20.811521
0.7594760596769672,0.1866217705509927,0.0186429236585467,-0.0039078553455146,0.0011853313886779,-0.0006438435269765,2.750988155533118e-06,-1.1041008162036629e-06,-7.077702151485926e-06,11866,-0.030402,3.649508,21.219142
0.6840866674699535,0.1710529654327421,0.2515835967982138,-0.0033651065642779,0.0010145021472617,-0.0006239131620502,2.8342031028525246e-06,-1.0557609686894522e-06,-7.279030573667717e-06,11867,-0.014552,3.769007,21.589434
0.4848352131630579,0.1432198264936476,0.4441041212811306,-0.0027588706737428,0.0007680257047719,-0.000624194810154,3.129589757220012e-06,-1.1154196358925916e-06,-8.02329139148159e-06,11868,0.004068,3.872051,21.925888
0.1382964156088153,0.1168699664463155,0.5174690814632177,-0.0020719798426061,0.0004681524529883,-0.0006360652992764,3.4729799405726507e-06,-1.2449526232873294e-06,-8.90025982531987e-06,11869,0.010657,3.947421,22.200771
-0.2868152371938123,0.0943776687238906,0.5200591792746373,-0.0013073482793317,0.0001346736752868,-0.000660025830409,3.720155198105162e-06,-1.3865484636523936e-06,-9.540717193005623e-06,11870,0.011005,3.970133,22.360826
-0.5655525511339347,0.0688674776569813,0.5109656698739675,-0.0004888436409137,-0.000215797949546,-0.0007091524807689,4.002460081366609e-06,-1.5429801870445411e-06,-1.0270420607923024e-05,11871,-0.005758,3.880304,22.426108
-0.6061900281813299,0.0763365140965664,0.4554355882773661,0.0003590523564582,-0.0005494240233199,-0.0007924725746591,4.494074728377567e-06,-1.712235628951915e-06,-1.1528425060096755e-05,11872,-0.0426,3.735787,22.424171
-0.5288828533313361,0.0089256428140425,0.4378511428003906,0.0012010066980859,-0.0008157266539288,-0.0009202405975164,5.131125902666756e-06,-1.8308529881116176e-06,-1.3157375903258597e-05,11873,-0.094784,3.602113,22.440416
-0.4832121404151306,-0.3807074843822663,0.4487859142362755,0.0020144074453859,-0.0009869928020366,-0.0010851009194667,5.739093689566532e-06,-1.8493359416007044e-06,-1.471368535337694e-05,11874,-0.17003,3.277492,22.413287
-0.5830992232071175,-0.964132588989446,0.1221882923781257,0.0027918035650431,-0.0010572050575667,-0.0012569243864937,6.21297141661731e-06,-1.7699118706050202e-06,-1.591747164372622e-05,11875,-0.36539,2.699554,22.163739
-0.7983549766688801,-1.2722351225191368,-0.5425647636531294,0.0035216924095885,-0.001023062025702,-0.0013921831148981,6.418294210507562e-06,-1.5736467094609178e-06,-1.6419050555317887e-05,11876,-0.878815,1.887916,21.880467
-0.9210468647068372,-1.2108592240948974,-0.9388573833043744,0.004195400948581,-0.0008953891915873,-0.0014229724377315,6.202128871109877e-06,-1.222113049001951e-06,-1.5837379830628614e-05,11877,-1.219192,2.17099,21.488045
-0.8050033388023281,-1.0887326306115772,-0.8508462385983531,0.0047964777267998,-0.000701224572438,-0.0013230686519145,5.603726853144968e-06,-7.449139587453552e-07,-1.4279811224228248e-05,11878,-1.36903,2.44485,21.067541
-0.5846463137420868,-1.0365681411269712,-0.7200663208720446,0.0052976575062973,-0.0004882410276477,-0.001112300403452,4.803100048861344e-06,-2.4047238002637935e-07,-1.2202464950400835e-05,11879,-1.283614,2.694025,20.463913
-0.394461673576325,-0.9513342970650364,-0.7167750602318868,0.0056701301619188,-0.0002761346253011,-0.0008178403430099,3.911584901931839e-06,1.9873138574512202e-07,-9.888185619988192e-06,11880,-1.209009,2.48946,19.759599
-0.1313383581845594,-0.7719601156408189,-0.5630910904776296,0.0058787363701306,-5.49016935579564e-05,-0.000496869066368,2.952329876486988e-06,5.392206522162742e-07,-7.4039564024000196e-06,11881,-1.210285,2.146336,18.959961
0.1868367928084772,-0.541336851760828,-0.2455925170668313,0.0059039393647463,0.0001640846435437,-0.0001795912186123,1.8905533967180896e-06,8.315991982440786e-07,-4.671203464314534e-06,11882,-1.166167,2.077762,18.198424
0.4218510998268988,-0.3776276789003002,-0.0234093053584291,0.0057447014146913,0.0003585890897406,0.0001339235511319,7.083645900379376e-07,1.133620677345664e-06,-1.6421962195946422e-06,11883,-1.009186,2.102295,17.563092
0.6839319468493106,-0.3290907979579779,0.0136667010020972,0.0054056986497441,0.0005290148921996,0.0004260909566913,-4.817318603103832e-07,1.3957629553110532e-06,1.410477041435438e-06,11884,-0.763498,2.101775,17.033431
1.0397038467418336,-0.2992779399478378,0.0055095835130531,0.0049063049798039,0.0006943168248299,0.0006753592059049,-1.5152014759971762e-06,1.5395057107525765e-06,4.070241682069079e-06,11885,-0.470995,2.085464,16.582834
1.2219895877281055,-0.2354065584148717,0.0702770797192789,0.0042713656276744,0.000853965356715,0.0008728479728022,-2.3167955231648736e-06,1.5990949829810067e-06,6.129905062457363e-06,11886,-0.174576,2.045414,16.19827
1.124376765752101,-0.1852831833378858,0.1554188356470786,0.0035340517379672,0.0009919946030965,0.0010190334129452,-2.929303446302297e-06,1.6584788425451684e-06,7.69028992527446e-06,11887,0.076216,2.025819,15.918929
1.0051040825619948,-0.1797125825473854,0.227185828881277,0.0027532273292275,0.0010965570164442,0.0011269273819262,-3.4907806118890134e-06,1.74067686001806e-06,9.11735385747938e-06,11888,0.258177,2.109306,15.762607
0.9658006112299646,-0.1991878485707509,0.3012819041833534,0.002018250599319,0.0011518546534229,0.0012282970322913,-4.129287416138042e-06,1.8457538738129397e-06,1.0751659726635266e-05,11889,0.400591,2.289123,15.665584
0.8677336276795522,-0.2010945214490189,0.348026014995709,0.0013726553336688,0.0011466442068031,0.0013338559946926,-4.823627242718983e-06,1.971933154202865e-06,1.2529988338230946e-05,11890,0.529889,2.521492,15.619413
0.6297902556270526,-0.1740943761680406,0.3921316120408956,0.0008130713656507,0.0010763511168452,0.0014334838201532,-5.450450358158033e-06,2.064838589422096e-06,1.412466148823258e-05,11891,0.686959,2.765516,15.616289
0.2834340394614594,-0.1480375088428482,0.4950557105151962,0.0003295402241855,0.0009337857583004,0.0015208992850863,-5.970814621317061e-06,2.0673677950306406e-06,1.5440509798901422e-05,11892,0.876722,2.953116,15.665364
-0.0260230642280458,-0.1211412290294579,0.6050683313877678,-0.0001183786959806,0.0007118774626412,0.001583348906169,-6.442687990935825e-06,2.009717783902079e-06,1.6630133433404352e-05,11893,1.062799,3.086741,15.755186
-0.2310999521737998,-0.0865081147667789,0.6320676252242846,-0.0005510153575611,0.0004210253688579,0.001614120545444,-6.821690674452172e-06,1.946792249601338e-06,1.757767435571703e-05,11894,1.229739,3.139043,15.84245
-0.3971223280307783,-0.0416676188168897,0.5915225512424231,-0.0009668949718631,9.163751414319394e-05,0.0016149403724812,-6.915907937039687e-06,1.8383532665210565e-06,1.779661698769414e-05,11895,1.417465,3.293674,15.862734
-0.4640396506704712,0.1230921614037437,0.5004283795334235,-0.0013895421881298,-0.0002279658828625,0.0015821072279709,-6.639951539816891e-06,1.601471193718361e-06,1.7073835874109014e-05,11896,1.581813,3.45753,15.843983
-0.4282251723521687,0.4621992636327247,0.3533686675728386,-0.0018582554852961,-0.0004611658477559,0.0015098530237366,-6.107779779322635e-06,1.2103080006536656e-06,1.5693570234534664e-05,11897,1.682202,3.330025,15.92888
-0.5225223909743069,0.7725260207159836,0.17703140794435,-0.0023861773334301,-0.0005730954568634,0.0013912696879705,-5.411123959670333e-06,6.772445213656375e-07,1.3877498738323545e-05,11898,1.733119,2.809632,16.252795
-0.7784638714502665,0.8626510115443305,-0.0456760330085427,-0.002963294228231,-0.0005733576063261,0.0012161008790948,-4.593286456177544e-06,7.549604126306206e-08,1.1735520706775676e-05,11899,1.855506,2.047759,16.722194
-0.944055262290833,0.8024872182964085,-0.2829397097036887,-0.0035695652990043,-0.0004747704945772,0.0009718691171365,-3.787333844086432e-06,-4.431775216982285e-07,9.620990085838943e-06,11900,2.110535,1.904553,17.166972
-0.9054265402839122,0.7580797226802214,-0.3957515118346714,-0.004161927067611,-0.0003154040185875,0.0006425779159476,-3.074407961625091e-06,-7.90582647971061e-07,7.752486017279763e-06,11901,2.29037,1.97071,17.526201
-0.6735011475660566,0.7887750866031034,-0.3562898074374855,-0.0047087208928391,-0.0001164904005402,0.0002353243913423,-2.3147603269368766e-06,-1.0252510979814788e-06,5.775492774639107e-06,11902,2.308597,2.095723,18.009834
-0.3115496861837954,0.8120019214430318,-0.303041947576638,-0.0051882897419971,0.0001199055381349,-0.0002155811293776,-1.3531734086850702e-06,-1.2249687033345335e-06,3.292719153413127e-06,11903,2.137776,1.990109,18.738533
-0.0287532252068725,0.7350701802003439,-0.3242343575057184,-0.005558475713251,0.0003703324722835,-0.0006584089739624,-2.711220993350439e-07,-1.3892509481311528e-06,5.102590696772819e-07,11904,1.919508,1.992512,19.607136
0.1425856477107189,0.6359079229297253,-0.3668007931680279,-0.0057608611425026,0.0005979241067553,-0.0010103357644516,7.400237147773319e-07,-1.4942682985229611e-06,-2.084081643744076e-06,11905,1.667524,1.996349,20.380898
0.4110798438305741,0.5890069831728102,-0.348457646881092,-0.0057664216714594,0.0007842278223961,-0.0012336341818455,1.6077338054716445e-06,-1.5129681638496276e-06,-4.30395163001235e-06,11906,1.355144,2.162936,20.911939
0.7177930684033937,0.4719740590688153,-0.2612923717329816,-0.0055748734434571,0.0009257768738176,-0.0013393022904391,2.3462136031484234e-06,-1.4108287485797964e-06,-6.184393738660639e-06,11907,0.990727,2.400364,21.318449
0.8119725417643873,0.2625910392407279,-0.1810750579327709,-0.0051965688028382,0.0010240734553673,-0.0013402078260737,2.966054674622492e-06,-1.223822060641455e-06,-7.75272380240644e-06,11908,0.645893,2.597597,21.794421
0.7415432367273911,0.1347215189954902,-0.1713446370081403,-0.0046677994308719,0.0010942859356396,-0.0012749837217539,3.507419732171092e-06,-1.069710518977243e-06,-9.118638199387383e-06,11909,0.376283,2.783113,22.333937
0.6782821513166946,0.1456618649224969,-0.1730177054983603,-0.0040178290223719,0.0011366927933294,-0.0011664977650643,4.005590324131571e-06,-1.040836142555406e-06,-1.0383180399095932e-05,11910,0.203762,3.022778,22.813935
0.6330461785142307,0.2086725278909364,-0.0822959272651843,-0.0032712191119641,0.0011357020796911,-0.0010192391411308,4.374676580271991e-06,-1.13459386230215e-06,-1.1325611980547648e-05,11911,0.133555,3.264112,23.154691
0.5954832237619601,0.2560843536729963,0.0766882157143499,-0.0024815403244801,0.001080439674528,-0.0008614115888027,4.493951840739802e-06,-1.2845105348903604e-06,-1.1622020002520377e-05,11912,0.143767,3.490355,23.388734
0.5320556564976316,0.2616763603623711,0.2245183799362681,-0.0017299864540789,0.0009573170631419,-0.0007375419141321,4.420454502527878e-06,-1.415304786875893e-06,-1.1409281783255026e-05,11913,0.17319,3.67321,23.52072
0.3567959707395777,0.2316366720195853,0.3994720803986771,-0.0010564095140803,0.0007615586582666,-0.0006675901254784,4.32185577579822e-06,-1.4738855242353434e-06,-1.1128492446064745e-05,11914,0.190054,3.845574,23.568495
0.0988340701957942,0.1988940676024067,0.6085001463239083,-0.0004602715763259,0.0005006031679181,-0.0006499197001351,4.252603820622869e-06,-1.4504457100646774e-06,-1.0938277804109902e-05,11915,0.18284,4.004537,23.572648
-0.1339204076146971,0.1795921771511056,0.6848809007315186,6.679155130392728e-05,0.0001845116160576,-0.0006756154603768,4.173989082747505e-06,-1.3591178077555112e-06,-1.0743106163617374e-05,11916,0.14129,4.055828,23.52817
-0.3200629650541565,0.1512191922885165,0.6150095191253926,0.0005621298869283,-0.000168552416036,-0.0007164393107424,4.087723439972446e-06,-1.2132770009635016e-06,-1.05390524686861e-05,11917,0.072295,4.053519,23.425159
-0.4567759345513095,0.1271956797307979,0.5624497121998806,0.0010417110666885,-0.0005319337827685,-0.0007580330742482,4.081681464902129e-06,-1.073359420206628e-06,-1.0545357073880112e-05,11918,-0.014045,4.000194,23.286332
-0.4759932352838093,0.1395432557357177,0.5047966024138117,0.0014987217981472,-0.0008681386384933,-0.0007999404672122,4.315508071528929e-06,-1.0407499392126085e-06,-1.1163475567493515e-05,11919,-0.104219,3.935937,23.176966
-0.4286295050316833,0.0351141124996164,0.4815199482361164,0.0019473328843521,-0.0011200431277752,-0.0008282221900973,4.863380557555582e-06,-1.1346614063319233e-06,-1.2573043360228156e-05,11920,-0.20019,3.779878,23.05555
-0.5034505772907778,-0.3650546071705114,0.5113180692384683,0.0024127290872197,-0.0012050385061604,-0.0008216802808477,5.553595533687058e-06,-1.2467427823675331e-06,-1.433606862875866e-05,11921,-0.339386,3.456706,22.881562
-0.717322744715605,-0.8275055679479303,0.168418704944813,0.0029020497378232,-0.0011030095076408,-0.000769749241488,6.0780910677536935e-06,-1.2367503311458943e-06,-1.5677075487491152e-05,11922,-0.585582,2.843102,22.564079
-0.8784710584863444,-0.97856466660895,-0.5994076511432325,0.0034076976895647,-0.0008627467957398,-0.0006702361540721,6.227273044222773e-06,-1.0552879662106777e-06,-1.6062215649956947e-05,11923,-0.994174,2.300952,22.362903
-0.8775737534806094,-0.8849293496198735,-1.078800652643915,0.0039140368123258,-0.0005610327970613,-0.0005248680529249,5.954948470160534e-06,-7.676307990197542e-07,-1.536258567742127e-05,11924,-1.197962,2.716583,22.068359
-0.8218135257898311,-0.8079534963588773,-0.9912992134326168,0.0043886871473597,-0.0003374220620185,-0.0003443108003184,5.27641888114877e-06,-4.4202652342193785e-07,-1.3614784687867188e-05,11925,-1.267364,3.135746,21.6838
-0.7738177592477437,-0.7695593692996663,-0.8347810802598574,0.0048093170950328,-0.0002421831596123,-0.0001362052785235,4.2592333334335135e-06,-9.580581565907877e-08,-1.0998238193116115e-05,11926,-1.116992,3.531144,21.161876
-0.5501973805361206,-0.7239186992201099,-0.8240531227498336,0.0051626413001056,-0.000227226463945,9.388962888903676e-05,3.100018429847885e-06,2.299293721772965e-07,-8.012906069859587e-06,11927,-0.999591,3.426681,20.546452
-0.1332251861948683,-0.6628906879013469,-0.7088171851139915,0.005422445893718,-0.0002449349655885,0.0003311446459482,2.0173527943266824e-06,4.732603653273288e-07,-5.212697773652966e-06,11928,-1.00322,3.203353,19.825711
0.1726039803852418,-0.5275363524775587,-0.4757787184253652,0.0055536461053157,-0.0002006700117998,0.0005521990170584,1.0649502475584143e-06,6.467109112238229e-07,-2.7466971602054307e-06,11929,-0.991664,3.091242,19.094361
0.363087565401432,-0.3552546864324103,-0.2961120234502465,0.0055383100731612,-6.034096582156247e-05,0.0007415318322214,1.286141459288203e-07,8.180138258746155e-07,-3.3235156469069935e-07,11930,-0.847918,3.034917,18.446049
0.731025240793156,-0.2660735379353159,-0.2111059131047789,0.0053749752154934,0.000136882410632,0.0008900635153681,-8.636601487488949e-07,9.644743268723743e-07,2.2267746795616046e-06,11931,-0.581685,3.033513,17.862845
1.14381464528428,-0.2552134091923506,-0.1800721149581037,0.0050696447732084,0.0003661589364622,0.000986487921618,-1.7760225253792347e-06,9.791351181121408e-07,4.5906489960825256e-06,11932,-0.281869,3.002248,17.293204
1.2448352318896654,-0.2456751181518372,-0.153553756694768,0.0046447072607853,0.0005838263883661,0.0010207846067468,-2.482254144567934e-06,8.875996591773128e-07,6.419806928025332e-06,11933,0.007166,2.968986,16.771771
1.1176769954852197,-0.2224691589420977,-0.1059402616127994,0.0041192996512935,0.0007646435010125,0.000992985265968,-3.108118383990896e-06,8.609537780339578e-07,8.023192890397317e-06,11934,0.271027,3.017583,16.341484
1.028315851397688,-0.2018679515470547,0.0140890674370105,0.0035112785612536,0.0009110064647284,0.0009146589508137,-3.80729505624387e-06,9.711964967691134e-07,9.807481947013974e-06,11935,0.476322,3.148833,15.987181
0.9850229922860084,-0.1860680473159017,0.1919261688056852,0.0028576793442077,0.0010086130717507,0.0008097358817748,-4.5115965427631865e-06,1.1581026130754512e-06,1.161135696972067e-05,11936,0.611149,3.336342,15.695626
0.864713763560572,-0.1724730557770207,0.3055868022934622,0.0022146159029906,0.0010374106274576,0.0007206673776767,-5.103719221231854e-06,1.3827589988730572e-06,1.3125504408929473e-05,11937,0.710355,3.587857,15.478017
0.6100888097282599,-0.1614619137033907,0.3522004779859771,0.0016093833319544,0.0009864435467541,0.0006657623925935,-5.642218476184617e-06,1.6266792866994883e-06,1.4495174939869676e-05,11938,0.781353,3.824623,15.354693
0.2535984765064689,-0.1473158654938506,0.4232809542586462,0.0010407552413332,0.0008495782977951,0.000638313094792,-6.226800829938487e-06,1.833606657819232e-06,1.5987746004817505e-05,11939,0.863477,4.089288,15.267987
-0.1391558698711274,-0.1192097171079688,0.5195341434291523,0.0005021669538938,0.0006270611396199,0.0006323741945473,-6.78258135136618e-06,1.9607609960552684e-06,1.7417492682335643e-05,11940,0.932345,4.318912,15.205981
-0.4950639176669628,-0.1053938447232104,0.5695236174474112,-3.3125987463902265e-05,0.0003292534412361,0.0006303524062116,-7.132891830697959e-06,2.01418415306578e-06,1.8325500063033948e-05,11941,0.968676,4.517599,15.175651
-0.7034514536766433,-0.0992538502449215,0.5255656782257415,-0.0005777551176389,-2.4102376102337663e-05,0.0006230330430083,-7.145310028220922e-06,1.9789468648528457e-06,1.83620321926067e-05,11942,1.043669,4.672809,15.197379
-0.7021343263477503,0.0235317906974115,0.4572402262086829,-0.0011293564134163,-0.0003995112299162,0.0006114629850152,-6.784856808330362e-06,1.805839265230992e-06,1.7429311455971675e-05,11943,1.15241,4.802759,15.220222
-0.6126999437275754,0.3046406487162229,0.3473914020582051,-0.0017009675615726,-0.0007416070744173,0.0005866088538015,-6.1747356347138334e-06,1.5163973837148644e-06,1.5843924396071723e-05,11944,1.151705,4.637161,15.270138
-0.6141345771821717,0.5890127366680777,-0.0513341633090334,-0.0023145356062889,-0.0009660844036431,0.0005335210905331,-5.520266874447125e-06,1.1978526019686043e-06,1.4143325245199264e-05,11945,1.03575,4.048321,15.474084
-0.7118507797105851,0.739742752426348,-0.6658800419747744,-0.0029756149297518,-0.0010370308265465,0.000446604722607,-4.9098706080048165e-06,8.704327650460745e-07,1.2566355835733735e-05,11946,1.019678,3.376967,15.757809
-0.7869999842407924,0.763767916839849,-0.9949431204133375,-0.0036751472771487,-0.0009698408166116,0.00032806464495,-4.330109421424594e-06,5.005079809854396e-07,1.1080065180187676e-05,11947,1.152058,3.364353,15.974273
-0.7527996642606668,0.7196363470492868,-0.9044417424484196,-0.004396419361799,-0.0007898052531481,0.0001837206411533,-3.789286805486253e-06,1.2705831826045e-07,9.701821875369332e-06,11948,1.238328,3.592376,16.121793
-0.5669793093464901,0.6650976252676866,-0.7656499891858112,-0.0051068214260809,-0.0005579359028715,2.7508126952339844e-05,-3.235716519746368e-06,-1.6189181069200514e-07,8.296987052577723e-06,11949,1.136303,3.678684,16.406558
-0.2708508780973268,0.6216386597970132,-0.734091501919812,-0.0057785366741847,-0.0003070909253682,-0.0001313891716347,-2.500196573022148e-06,-3.655805314991006e-07,6.423980500796466e-06,11950,0.959001,3.678759,16.98469
-0.0293378158773059,0.5537689530004867,-0.6429772912351674,-0.006386741567818,-3.958578972657512e-05,-0.000288136287979,-1.515302772331442e-06,-5.630101169456174e-07,3.9006474106829815e-06,11951,0.83817,3.723951,17.788746
0.1281329430688698,0.4726949317832794,-0.4639395784491231,-0.0068897710566386,0.0002181232226307,-0.0004314345436926,-4.782110763081812e-07,-7.582017492563163e-07,1.2363438362662435e-06,11952,0.688169,3.628889,18.61764
0.3983910384332662,0.4205099505227011,-0.2820775408085084,-0.0072301475189535,0.0004289982118445,-0.0005454457440347,3.82040638114798e-07,-8.874847811572637e-07,-9.687232534479168e-07,11953,0.494893,3.70306,19.234875
0.7470393617154338,0.3855274207332277,-0.1602077225590861,-0.0073787856557929,0.000573383955347,-0.0006224389440095,1.0793901316647875e-06,-9.714071776800728e-07,-2.746355582962464e-06,11954,0.276615,3.935267,19.715361
0.8890958454963236,0.3512566739805517,-0.1197186916260395,-0.0073353625290422,0.000644518625161,-0.0006623479633508,1.7213749379635264e-06,-1.059977430674541e-06,-4.38187486208165e-06,11955,0.070893,4.152611,20.249986
0.8110126729606035,0.3093370021891094,-0.0860620761061762,-0.0071086080193939,0.0006449468629068,-0.0006682415287155,2.2684417882277304e-06,-1.103344195689825e-06,-5.781939935225006e-06,11956,-0.089064,4.36579,20.826095
0.7294221051260606,0.2615444983830221,-0.0522947270046495,-0.0067312847534691,0.0005946710305369,-0.0006504886369714,2.67087032273294e-06,-1.057006138561126e-06,-6.815780973122303e-06,11957,-0.202676,4.592096,21.339476
0.6940216278710583,0.236230339317143,-0.0294525379291652,-0.0062304618031215,0.0005027722065946,-0.000616957130675,3.050351986891425e-06,-9.988820814934998e-07,-7.78748682113513e-06,11958,-0.245014,4.809777,21.767138
0.6210294083802423,0.2350369896723259,0.1008303823996864,-0.0056294969557575,0.0003687618698309,-0.0005736308763053,3.475949797745835e-06,-1.0145913358597323e-06,-8.873806303877426e-06,11959,-0.242417,4.95587,22.153139
0.5212093877228456,0.2288948980778555,0.355573549283658,-0.0049797317008676,0.0002048555053498,-0.0005340999154731,3.770629416934059e-06,-1.0783483965969563e-06,-9.628977111207527e-06,11960,-0.230613,5.08892,22.464474
0.424524699856919,0.2067262089928365,0.5847549674191971,-0.0043596180129431,3.157954642864073e-05,-0.0005188727689293,3.817672072449023e-06,-1.125280508340932e-06,-9.756278937335916e-06,11961,-0.236729,5.202586,22.687541
0.2415285979245152,0.1717810921093439,0.7065118149234788,-0.0038077873195945,-0.0001405401295311,-0.000536621745934,3.7349882702766814e-06,-1.1279073015128568e-06,-9.550800315054196e-06,11962,-0.251531,5.32544,22.818406
-0.0779242927260663,0.1328660494394698,0.7327749802198634,-0.0033239994537562,-0.0003089368108575,-0.000584229760721,3.595594613781355e-06,-1.0615203771478551e-06,-9.194089692126565e-06,11963,-0.288532,5.398651,22.87894
-0.3809212704653965,0.0959226305722097,0.6970840039509947,-0.0029012066273669,-0.0004724124606072,-0.0006550863770085,3.4010642336011525e-06,-9.219124422723996e-07,-8.692704378936987e-06,11964,-0.366352,5.361339,22.849451
-0.4914965993160848,0.0749059941801487,0.6499653807574165,-0.0025052207809778,-0.0006357772271137,-0.0007329098621516,3.3189909718866845e-06,-7.938447108436368e-07,-8.482207950156434e-06,11965,-0.489635,5.227115,22.760959
-0.4532444614755473,0.0928820529637363,0.5971398898814346,-0.0021198415565067,-0.0007914323979409,-0.0008048055728857,3.569030396768107e-06,-7.613118617376168e-07,-9.126971288408305e-06,11966,-0.641424,5.107452,22.680428
-0.4077854174997058,0.0102378058015536,0.5869687705303597,-0.0017479130141632,-0.0009175561042992,-0.0008607204912939,4.133963801553883e-06,-7.899733902050369e-07,-1.058035421825677e-05,11967,-0.830308,4.914719,22.657459
-0.3738128385756557,-0.3917692196179643,0.5908921321839945,-0.0013704994026589,-0.0009891063378944,-0.0008803386195823,4.820445961870061e-06,-8.205171709485129e-07,-1.234170874373764e-05,11968,-1.038093,4.630586,22.675664
-0.3488723144690547,-0.931198649285306,0.2773880916752986,-0.0009550127687962,-0.0009709861231993,-0.0008340975685046,5.476913385314795e-06,-8.424290329540107e-07,-1.4013564063026237e-05,11969,-1.383072,3.940138,22.773083
-0.4342143549242553,-1.1799556369802306,-0.3712350346839608,-0.0004935492952024,-0.0008587168148431,-0.0007088023081094,5.951862151187471e-06,-8.214797805526979e-07,-1.5204181419621847e-05,11970,-1.696743,3.848639,22.799386
-0.6076989778296007,-1.1137418872421911,-0.7665361746281731,-6.782594253800997e-07,-0.0006837212054262,-0.0005076224192819,6.033054599982765e-06,-7.026531806413332e-07,-1.5376983329001832e-05,11971,-1.840901,4.074592,22.730337
-0.6190216867236205,-1.000673636001757,-0.6840870182358343,0.0004983887004359,-0.0004925312978148,-0.0002389710052307,5.623569991719886e-06,-4.902854493678452e-07,-1.429426117080126e-05,11972,-1.774808,4.286794,22.399735
-0.366013133377615,-0.9477125093919676,-0.5619917905669165,0.0009553161860055,-0.0003644509768935,7.49195191860274e-05,4.844008817644319e-06,-2.5406503810668946e-07,-1.2273816380255965e-05,11973,-1.617816,4.155626,21.924168
-0.0495150239591859,-0.9026607985750924,-0.5652311070543379,0.0013413029509153,-0.0003258427111218,0.0004154475091456,3.882618936667161e-06,-3.3705727028286784e-08,-9.802751448430157e-06,11974,-1.478998,3.947016,21.347538
0.1584328195871993,-0.7516041774295878,-0.4149513005195737,0.0016472051590542,-0.0003440890070396,0.0007665461955557,2.852684206717881e-06,1.970759179681575e-07,-7.168627891498924e-06,11975,-1.394559,3.798018,20.760125
0.2687740914356501,-0.4757893898013838,-0.0975755741639901,0.0018511994692776,-0.0003806428856877,0.0010964231736391,1.8013445940323044e-06,4.30721405262843e-07,-4.4818353727518095e-06,11976,-1.230681,3.794408,20.189326
0.3898490439989722,-0.2677946064339441,0.1419257437924689,0.0019279536236552,-0.0003623313008485,0.0013582700592819,7.471041964668399e-07,6.066620497054274e-07,-1.7828508935696508e-06,11977,-0.966454,3.675383,19.687892
0.6282847867464734,-0.2261495513121869,0.225620365461483,0.0018626650382035,-0.0002631040052039,0.0015293806506635,-2.804498024122426e-07,7.087253715035176e-07,8.45409214793159e-07,11978,-0.610205,3.540066,19.190449
0.8916926167142187,-0.2170922924300479,0.2525982959486308,0.0016490779897976,-0.0001118378895904,0.0016109664052546,-1.2380521868997722e-06,7.833126751700435e-07,3.283233817763457e-06,11979,-0.241976,3.381882,18.696028
0.9697912233594586,-0.1749808788529446,0.2709839237343412,0.0012902056676296,6.844277552533269e-05,0.0016100443213954,-2.12518386194075e-06,8.541274937768392e-07,5.538481871754027e-06,11980,0.070889,3.237685,18.239363
0.8803928165089201,-0.1489439487065138,0.2520554513543072,0.0008036581132854,0.0002350191927756,0.0015519264523948,-2.9439642038645428e-06,8.951363142613471e-07,7.633405552274314e-06,11981,0.332935,3.232505,17.817579
0.7955487052592517,-0.1384537272920843,0.2884015705835815,0.0002073145600934,0.0003652489621731,0.0014527947273224,-3.6693875608756336e-06,9.433101043387304e-07,9.498949955840017e-06,11982,0.537555,3.34571,17.463856
0.7567040113059504,-0.1270885234812345,0.4386965410120259,-0.000477322617722,0.0004629728791362,0.0013199359051507,-4.314092536770887e-06,1.1060476156918526e-06,1.1145680463821777e-05,11983,0.699252,3.512986,17.172358
0.6664383332338057,-0.1191554101229189,0.5713423879818209,-0.0012096314596484,0.0005188051074627,0.0011777414601054,-4.874856796202855e-06,1.3737493614376826e-06,1.2560822767162396e-05,11984,0.829119,3.661835,16.95996
0.4317995939700594,-0.0988405115737266,0.6184221835642711,-0.0019278267549995,0.0005213081658779,0.0010640914473206,-5.283726139709692e-06,1.6087555686038768e-06,1.358688629772134e-05,11985,0.953186,3.819055,16.843816
0.1374300685058595,-0.0612451009251402,0.631438050394479,-0.0026008077826129,0.0004650331116094,0.00099565360959,-5.53874908138914e-06,1.7432628890348135e-06,1.422767830499507e-05,11986,1.079584,3.962031,16.811091
-0.075455372090908,-0.0344339765160706,0.6425030276354247,-0.0032283534125091,0.0003469718184188,0.0009691658002518,-5.7550374788115e-06,1.8133121975651497e-06,1.4772123457173726e-05,11987,1.193251,4.081986,16.829778
-0.293318309560804,0.0037373187539453,0.6332508268360869,-0.0038141133685428,0.0001717657242253,0.0009754853442553,-6.013010693718814e-06,1.83654235631582e-06,1.542637699615373e-05,11988,1.31458,4.173715,16.857055
-0.5751041129852994,0.1050275003762806,0.569948773144278,-0.0043814633576254,-4.584004901219221e-05,0.000988851520233,-6.256648025548945e-06,1.785652049298274e-06,1.6050314180114498e-05,11989,1.478881,4.355345,16.883931
-0.7251292793661234,0.2528593863127026,0.5118460852624174,-0.004936778776371,-0.000290822893113,0.0009935432600994,-6.3739698036672105e-06,1.6488668653002998e-06,1.634385540691599e-05,11990,1.631909,4.465877,16.958865
-0.6682546910657835,0.4484343810159902,0.4383599026584224,-0.0054674618328632,-0.0005450001042828,0.0009837316475476,-6.298233148842395e-06,1.4416599888095952e-06,1.6120196794315146e-05,11991,1.721244,4.377738,17.173459
-0.603442800084663,0.6969709699607072,0.0755214922102302,-0.0059734298132779,-0.0007774473546724,0.0009399798028905,-6.012837843534391e-06,1.1854174986021564e-06,1.534320845091712e-05,11992,1.743587,3.838421,17.459824
-0.6913720046903421,0.8652224452409316,-0.5524788693637972,-0.0064587347457251,-0.0009429008883115,0.0008335078759342,-5.535939169900836e-06,9.282779146580632e-07,1.4076933781982088e-05,11993,1.897565,3.604405,17.748397
-0.8415647390816403,0.8526512811858151,-0.922290199780086,-0.0069164423994237,-0.0010193604783251,0.0006569437138093,-4.913032488481061e-06,7.161754065210592e-07,1.2447667673127856e-05,11994,1.996326,3.592223,17.907873
-0.826135434057459,0.7734419808240196,-0.8479477271587343,-0.0073306393194027,-0.0010088353572709,0.0004242199634391,-4.165359186584432e-06,5.132726548216919e-07,1.051681984800628e-05,11995,1.905043,3.561202,18.120975
-0.6044024124207217,0.723176866501042,-0.723223499906838,-0.0076766632597796,-0.0009182099967891,0.0001603765776554,-3.261655890246616e-06,2.636124764867038e-07,8.206006809414685e-06,11996,1.675782,3.52531,18.539606
-0.3529713324002836,0.6559265882167745,-0.7131691948945791,-0.0079156207662727,-0.000771518483756,-8.704011657541277e-05,-2.158386187154009e-06,-2.9681938524065363e-08,5.391511221634715e-06,11997,1.4104,3.460441,19.185516
-0.1025054842124985,0.5869583630177584,-0.6054780375541275,-0.0080341980725313,-0.0005846876882971,-0.0002945101399175,-8.794196905575739e-07,-3.704079242562581e-07,2.1253713703407505e-06,11998,1.202444,3.391406,19.8765
0.2066897547111036,0.5622529043021727,-0.4056506245234625,-0.0080467432792308,-0.0003655981325478,-0.0004636185509495,3.761825043375624e-07,-7.494267458709764e-07,-1.0778796693026954e-06,11999,0.989472,3.300275,20.416261
0.4510409299380501,0.5481030882613256,-0.2850190851753814,-0.0079735971238683,-0.0001388458216631,-0.0005886093974101,1.2946502345017706e-06,-1.0404032060803913e-06,-3.411925793743e-06,12000,0.780296,3.396533,20.76473
0.5757203346988532,0.5195257752954906,-0.2497262519453303,-0.0078548252461932,5.743640146193304e-05,-0.0006683997241961,1.723348886399908e-06,-1.0960650269408335e-06,-4.492995131720474e-06,12001,0.581875,3.505141,21.065792
0.6713505612693486,0.4780690985847933,-0.2066181172081711,-0.0077077714237104,0.0002038682239839,-0.0007025584839914,1.8025634692920407e-06,-9.47747849386318e-07,-4.685766587992115e-06,12002,0.418361,3.599187,21.364387
0.7089158414397635,0.4236612951606285,-0.1387777253576087,-0.0075243532047442,0.0002981557833765,-0.0006890455066957,1.806931612765876e-06,-7.874306385584474e-07,-4.691309720033891e-06,12003,0.301385,3.746324,21.616728
0.6514936790303711,0.3676535288058294,-0.110892063767764,-0.0073026975693011,0.0003413364882841,-0.000636253518274,1.9040722281295037e-06,-7.191131058848471e-07,-4.9392899838781945e-06,12004,0.23407,3.927138,21.83394
0.5876041327758247,0.3303385518441936,-0.0795533102351031,-0.0070352585863548,0.0003470402861723,-0.000563323622836,2.0903957667546018e-06,-6.644420918284648e-07,-5.423763261204766e-06,12005,0.209068,4.091426,22.048487
0.5603008966154261,0.3174150922233913,0.0645055987915627,-0.0067242909773817,0.0003155615571487,-0.0004816523291421,2.3479305105265224e-06,-5.981930626059178e-07,-6.092318349438696e-06,12006,0.219924,4.261392,22.284511
0.4949353244414132,0.3111747983480341,0.3029506189417291,-0.0063859798809882,0.0002325176182752,-0.0003969678064818,2.706005876832636e-06,-6.327059831110562e-07,-7.009655144082568e-06,12007,0.247017,4.430651,22.540429
0.292867873210882,0.2999032242260741,0.5381951755635025,-0.0060348661142252,8.875896319861752e-05,-0.0003201487368132,3.109552404867285e-06,-7.836397307894452e-07,-8.033430011780335e-06,12008,0.273558,4.563821,22.750056
-0.0390095765842167,0.2776922443698102,0.6943538023835101,-0.0056897751197143,-0.0001263704756731,-0.0002641479131904,3.4174237351641625e-06,-9.31647297554134e-07,-8.804847142336873e-06,12009,0.289387,4.69723,22.876362
-0.3317774136810421,0.220331038027474,0.7307275923573666,-0.0053618294533433,-0.0004047086733436,-0.0002357271257993,3.585792458642365e-06,-1.0130998846427929e-06,-9.214284365071995e-06,12010,0.287635,4.783002,22.893136
-0.4592579881963651,0.1199704505758229,0.690668162864997,-0.0050520383801342,-0.0007136494269324,-0.0002356937642566,3.7011274391269102e-06,-1.0416340564206488e-06,-9.495623868430028e-06,12011,0.260751,4.779382,22.830523
-0.4836526906234349,0.0488523172399428,0.6474377542663237,-0.0047612992379186,-0.0010067794294472,-0.0002603158398403,3.825942319436058e-06,-1.0119692736832806e-06,-9.824877232515132e-06,12012,0.193894,4.68321,22.745612
-0.4718273688958049,0.0312176884781888,0.5819421800831039,-0.0044858091766241,-0.0012121871511523,-0.0002979599232441,3.99670756822773e-06,-9.16147313367819e-07,-1.0292168614942386e-05,12013,0.074472,4.468109,22.667304
-0.4345546844043927,-0.1211659681782967,0.5579568765076911,-0.0042217941771622,-0.0012939083249934,-0.0003364489541383,4.360218880166874e-06,-8.265540470604603e-07,-1.1251468457293943e-05,12014,-0.089623,4.185993,22.592664
-0.4415095221919946,-0.5131680905647037,0.5723051320277037,-0.003965606904145,-0.0012550539847291,-0.0003613713427116,5.03561482602815e-06,-8.41691755752597e-07,-1.2994425811494422e-05,12015,-0.279878,3.857585,22.48808
-0.5408389887936293,-0.8823738493390376,0.2525788401725052,-0.0037063721131184,-0.0010990554588265,-0.0003473544918453,5.822603644973955e-06,-9.439525462260764e-07,-1.501028257564248e-05,12016,-0.592237,3.165184,22.467294
-0.6462268158483746,-0.9792195008863293,-0.4358084259738024,-0.003425669877387,-0.0008487660006782,-0.0002567624729611,6.383217100552484e-06,-1.056243717648558e-06,-1.642453397189693e-05,12017,-0.906468,2.913094,22.446623
-0.6517491482508554,-0.9061878697551214,-0.8645817642123637,-0.0031208376716859,-0.0005385972579264,-7.672410425390327e-05,6.566589694433507e-06,-1.1322777166486458e-06,-1.6838290217491732e-05,12018,-1.01052,3.156259,22.39935
-0.6024673030522073,-0.8439916686413603,-0.7894178156694538,-0.0028057913822042,-0.0002169564745907,0.0001793181097974,6.27359460521812e-06,-1.0928538478054683e-06,-1.60204707353662e-05,12019,-0.883419,3.501463,22.20032
-0.5678733730615888,-0.8025091455737352,-0.6585930742849573,-0.0025006506933673,7.523028399966495e-05,0.0004890331162411,5.451171599033316e-06,-9.12171521845832e-07,-1.387299538470892e-05,12020,-0.626869,3.575795,21.864074
-0.4453843399411505,-0.7428554617932147,-0.655181348519601,-0.0022402543333218,0.000305693267863,0.0008077741972259,4.333161342276642e-06,-7.004556904065564e-07,-1.100000319564518e-05,12021,-0.419918,3.475864,21.414024
-0.1967247809142051,-0.664936779540114,-0.5453907538850123,-0.0020434538924997,0.0004540310689435,0.0011065598503993,3.245861468404041e-06,-5.389662510377969e-07,-8.219583485970166e-06,12022,-0.26782,3.453383,20.898865
0.053833850524271,-0.5639054531379193,-0.3362480444341124,-0.0019119356072474,0.0005207720611542,0.0013722990823051,2.216091713277789e-06,-4.2176197840685366e-07,-5.594692129046715e-06,12023,-0.027439,3.583072,20.403997
0.3207790773321989,-0.4409606685338575,-0.2043819710041474,-0.0018523352628939,0.0005343062316884,0.0015759857957918,1.0805913544875389e-06,-3.617881079422226e-07,-2.707709774595913e-06,12024,0.330126,3.6553,19.987961
0.6329769545299524,-0.3319266998683383,-0.1708023557980547,-0.0018681143828346,0.0005628138150935,0.0016798415769918,-9.741134692364621e-08,-3.855005398071076e-07,2.92017615305498e-07,12025,0.773118,3.732654,19.597485
0.7992597760749134,-0.2712883320707742,-0.1583120313394535,-0.00196214952119,0.0006264665755394,0.0016696104217312,-1.1377204919415765e-06,-4.076723785183608e-07,2.9498904423500188e-06,12026,1.185932,3.740093,19.178247
0.7380500202880225,-0.2516666215222151,-0.1274176848810829,-0.0021382592528766,0.0006973319114524,0.0015541564450534,-2.0958432979876787e-06,-2.748411697665381e-07,5.396644810535313e-06,12027,1.527826,3.860455,18.703379
0.6511413658137433,-0.2619433969663187,-0.0983287328874276,-0.0023930276313312,0.0007542073214143,0.001357242646474,-3.048992557450807e-06,1.1894388170176857e-08,7.825310103158762e-06,12028,1.760704,3.95649,18.230822
0.6300709705733096,-0.3008955726288578,-0.0071839747767801,-0.0027155140066925,0.0007590825585135,0.001130142219228,-3.85931637765968e-06,3.304708747362963e-07,9.89447460418905e-06,12029,1.906221,4.131527,17.879251
0.564650683734647,-0.3295674164690047,0.1780805960820831,-0.003097664908278,0.0006996889526919,0.0009007898299251,-4.435168076273472e-06,6.331137193359975e-07,1.1379401538248195e-05,12030,1.967097,4.281565,17.638907
0.4592360062122833,-0.3081034040767375,0.3000067229132105,-0.0035323767076021,0.0005969092364265,0.0006741409848588,-4.937006712431305e-06,9.332690643626184e-07,1.2686821117592348e-05,12031,1.99637,4.436775,17.434612
0.3686734770109735,-0.2377607962959492,0.3146195228278211,-0.0040064959408713,0.0004684788021098,0.000469412668106,-5.552875966851516e-06,1.231589762564335e-06,1.428577975250301e-05,12032,2.006357,4.572528,17.236655
0.2380763247065241,-0.143303423818977,0.381777470935921,-0.0045014434751573,0.0003437607729973,0.0003091553719257,-6.288627259189161e-06,1.5410470574916553e-06,1.6179147948848738e-05,12033,2.034972,4.720244,17.041989
0.0438791365017091,-0.0890982701155583,0.5177489666384395,-0.005009664351751,0.0002364123382092,0.0002026096950907,-7.095202944325861e-06,1.896261370162848e-06,1.823428760445333e-05,12034,2.068274,4.866163,16.856557
-0.1531183260968351,-0.0762247581686807,0.5903281634618518,-0.0055350451976817,0.0001396706330456,0.0001475602472216,-7.875913035475018e-06,2.2591736905727e-06,2.021045752861381e-05,12035,2.134801,5.018618,16.658658
-0.2985902264905962,0.0136934867557681,0.5513374733171256,-0.0060858625675972,5.0872460724803696e-05,0.0001290011382275,-8.407810052630584e-06,2.511460758010172e-06,2.1549810055302302e-05,12036,2.219704,5.15746,16.456004
-0.3436923242587387,0.1771552206878076,0.4262388119199382,-0.0066807425576164,-3.7585880886294246e-05,0.0001121545995181,-8.5593788201754e-06,2.600010571551332e-06,2.192050752812098e-05,12037,2.287733,5.187375,16.30806
-0.291860019104294,0.3002247306278778,0.2554377493208994,-0.0073251860489549,-0.0001265769845321,8.205537275988528e-05,-8.421065477456027e-06,2.5664276620632224e-06,2.15589476387726e-05,12038,2.326544,5.09189,16.242984
-0.3585267593242447,0.4241753807689106,-0.0061675223455584,-0.0080104029005249,-0.0002072602288797,4.30910839715156e-05,-8.17322139889706e-06,2.487724091108412e-06,2.0929128412136965e-05,12039,2.264776,4.665791,16.284687
-0.6663444601383705,0.592014633112254,-0.4516989973400276,-0.0087293013298325,-0.0002736103556448,-6.917681432080496e-06,-7.939002042515067e-06,2.4387862657970244e-06,2.0333986510544176e-05,12040,2.284638,4.652685,16.401362
-0.9057375927686856,0.6608120860167255,-0.8910377611663904,-0.0094696593658608,-0.0003183584665064,-6.7220121557486e-05,-7.696145089651323e-06,2.4120449821625827e-06,1.9704752687411133e-05,12041,2.258348,4.848737,16.503081
-0.8689582440692116,0.6058476981029607,-1.0020526789041635,-0.0102081780712854,-0.0003372730710127,-0.0001388731300557,-7.32150523149584e-06,2.3371652145328634e-06,1.8728067838721973e-05,12042,2.216977,4.928256,16.730885
-0.6994512936605362,0.617938652661479,-0.8878948438076513,-0.010908831887726,-0.000330905281205,-0.0002271536161094,-6.684790189986799e-06,2.193565795843572e-06,1.7075921441760833e-05,12043,2.129582,4.903285,17.133056
-0.4182693884365096,0.7216803102615729,-0.8128513221457967,-0.0115165451595696,-0.0002996719650333,-0.0003322669951817,-5.723800222959781e-06,2.005044496558403e-06,1.459065662875554e-05,12044,1.980309,4.882202,17.701096
-0.0180703791640371,0.775737590569066,-0.6977786992595,-0.0119501846139561,-0.0002458692473665,-0.0004505768506211,-4.552130813814208e-06,1.7823744876023327e-06,1.1565311685970226e-05,12045,1.823486,4.80211,18.452086
0.3113729811099941,0.7426765660412715,-0.4746702768598856,-0.0121781984574135,-0.0001732431992031,-0.0005776077737482,-3.393467818387202e-06,1.528460569409487e-06,8.58090911109537e-06,12046,1.685507,4.622707,19.179787
0.500404713517602,0.6317124449052759,-0.2756428771641566,-0.012222493916748,-8.712515074590482e-05,-0.0007059834487411,-2.3761983881690287e-06,1.2640576593381764e-06,5.9726833655305206e-06,12047,1.514945,4.60748,19.699989
0.6338485095988777,0.4700535555209613,-0.141529577248958,-0.0121195168861293,2.771948679134941e-06,-0.0008235464676407,-1.533220710492808e-06,1.038464693677863e-06,3.8216319961193135e-06,12048,1.291475,4.681652,20.026859
0.6968724661277725,0.3524991744916677,-0.0492092745155407,-0.011947119160291,8.138003512701687e-05,-0.0009121049643452,-8.669367528709881e-07,9.089199835517448e-07,2.1286709161581165e-06,12049,1.084945,4.774182,20.363423
0.6815377059393114,0.3230105362437521,0.0005998842597457,-0.011739718519094,0.0001403708285023,-0.0009632031877976,-2.983140200959612e-07,9.038425077255054e-07,6.85563192708627e-07,12050,0.897008,4.812268,20.758275
0.6581786892636187,0.3298703315859015,0.0261913287738814,-0.0114842332762847,0.0001780974327344,-0.0009786699914844,2.7429335331819056e-07,9.995008048037145e-07,-7.760901357783716e-07,12051,0.742433,4.90391,21.098985
0.6142420812585787,0.3378117141526552,0.044615821612113,-0.0111840862850281,0.0001927966326092,-0.0009620752595379,8.659947217387313e-07,1.1196371353072705e-06,-2.292811818645917e-06,12052,0.637579,5.018932,21.321585
0.5636791657538811,0.3386106611997472,0.0941548012860517,-0.0108370533789664,0.0001859898876258,-0.0009239200869584,1.3957040808503044e-06,1.1967252379097827e-06,-3.64784925814264e-06,12053,0.594182,5.142426,21.461214
0.5448408031746503,0.3125272455995233,0.238758454654067,-0.0104459729128847,0.0001541460690149,-0.0008710650682099,1.7272720125559895e-06,1.2410409121914178e-06,-4.496294620588111e-06,12054,0.58485,5.266196,21.569607
0.4313255560723275,0.2783031030626904,0.4392229490172928,-0.0100253159684037,8.766828209715992e-05,-0.0008065909347629,1.7938929849529932e-06,1.296533350643307e-06,-4.676378540289032e-06,12055,0.584857,5.396748,21.658955
0.1762044010876451,0.2495668703214702,0.5761799785853292,-0.0095796449371069,-2.2805808194821867e-05,-0.0007400844709053,1.6365545524938403e-06,1.3843893207790226e-06,-4.288255877140977e-06,12056,0.582078,5.497139,21.722565
-0.0450649786793734,0.2179891498009855,0.6136329054266381,-0.0091073231097267,-0.0001891881045,-0.0006861131312861,1.3395518838204847e-06,1.5340890997204166e-06,-3.5389623055588794e-06,12057,0.569643,5.545573,21.740177
-0.1262703783783511,0.1918262787879843,0.6101399703922066,-0.0086133721227056,-0.0004068227042438,-0.0006512002694817,1.0808386026476248e-06,1.7487966194965472e-06,-2.8867667559447533e-06,12058,0.542931,5.571981,21.690642
-0.137959832286788,0.1587885556224596,0.6036601338389307,-0.00810700537754,-0.0006509760530434,-0.0006343332920376,1.1002626484994533e-06,1.9252857218948283e-06,-2.9494634560000947e-06,12059,0.494217,5.6143,21.5852
-0.1475545363786541,0.1455374284076698,0.5554650460049065,-0.0075981195961116,-0.0008850667129458,-0.0006320455828482,1.5367858495368445e-06,1.934360065880652e-06,-4.077266259911331e-06,12060,0.420374,5.623177,21.465547
-0.1469633368038604,0.1003362367687162,0.5162301743487638,-0.0070999404993486,-0.001050756337163,-0.0006343413809138,2.3571330545446258e-06,1.775332261622056e-06,-6.179977939011605e-06,12061,0.319411,5.472687,21.318545
-0.1947822622004344,-0.2067510129152076,0.4941621051050048,-0.0066184663568864,-0.0011223325232832,-0.0006346039530102,3.3469609312270384e-06,1.5865718201631174e-06,-8.713801114482253e-06,12062,0.213496,5.236529,21.111852
-0.3891613424807089,-0.7244049489595294,0.2041144248507017,-0.0061514094035814,-0.0011096353924126,-0.00062937867812,4.200908554168277e-06,1.511477849227684e-06,-1.0901498226371912e-05,12063,-0.025823,4.529316,20.825366
-0.644893399689569,-1.0272861212414612,-0.3675785324427395,-0.0056942307155203,-0.0010247032549905,-0.0006093791176204,4.730443346451015e-06,1.566978749071977e-06,-1.2256138205224814e-05,12064,-0.372942,3.981353,20.54295
-0.7560673978470778,-0.9876440739682808,-0.71678736814981,-0.0052361265123797,-0.000899194949796,-0.0005608125139128,4.98931630342176e-06,1.6558894238037377e-06,-1.2911077810433065e-05,12065,-0.591532,4.051043,20.216852
-0.6873698755242006,-0.8845539789837531,-0.6531778212308157,-0.0047804477903345,-0.0007645437190924,-0.0004773959440513,5.143472056004481e-06,1.7105636803227534e-06,-1.328982665552798e-05,12066,-0.594641,4.329146,19.826273
-0.5533895762660175,-0.8417215209896685,-0.534233987861022,-0.0043469003176367,-0.0006525947319497,-0.0003599849781967,5.216041850908648e-06,1.7622998034720407e-06,-1.345536942731552e-05,12067,-0.450614,4.463748,19.350829
-0.3507819528320289,-0.7941024468266447,-0.5299677200103541,-0.0039599769443301,-0.0005706732742495,-0.0002118370690799,5.141156973915069e-06,1.8333350148661812e-06,-1.3249995575602222e-05,12068,-0.339098,4.285078,18.779392
-0.073168332179335,-0.7456601200407427,-0.4498197727477621,-0.0036569490486358,-0.0004922798476022,-4.24517544394818e-05,4.9933327014754405e-06,1.871230824660537e-06,-1.286763214446856e-05,12069,-0.343846,3.970784,18.1004
0.0768180957214589,-0.675826436048963,-0.2123822577855741,-0.0034532807383942,-0.0004163874301019,0.0001415411400334,4.869908126178272e-06,1.8560544353065324e-06,-1.255031450967736e-05,12070,-0.337814,3.87773,17.411172
0.0523671519344725,-0.562850812066794,0.0543867900098622,-0.0033396776457828,-0.0003599818989114,0.0003360917118502,4.717905068965389e-06,1.830895283115361e-06,-1.2161398873520972e-05,12071,-0.239822,3.909263,16.812023
0.13936332384312,-0.4785137035421725,0.1982090102626931,-0.0033038315145425,-0.0003149465117332,0.0005312441781364,4.509626018454248e-06,1.770015975200208e-06,-1.1637222267465393e-05,12072,-0.043624,3.951744,16.271893
0.4122754001076207,-0.4517190840728565,0.2161000067591108,-0.0033184572474461,-0.0002553706362433,0.0007121853965931,4.413051870611074e-06,1.5694705078349397e-06,-1.1410061358530728e-05,12073,0.184534,3.869227,15.745964
0.5856537383495898,-0.4237591082184279,0.2308046239051563,-0.0033639321705111,-0.0001756786672917,0.0008717341590805,4.602004510563173e-06,1.21944396442508e-06,-1.191892455999447e-05,12074,0.399903,3.752201,15.235094
0.5468212729739046,-0.3778494319007348,0.2614332265870626,-0.0034289825337418,-8.597584360818934e-05,0.0010099754996836,4.995134544421563e-06,8.352330829451376e-07,-1.2952533481926545e-05,12075,0.575813,3.674758,14.815944
0.4725967892301027,-0.3927232427532816,0.2686736403649786,-0.0034878061523368,4.382149497232288e-06,0.0011290050405165,5.421412907682306e-06,4.584134982592538e-07,-1.4070886529320524e-05,12076,0.718256,3.745623,14.473703
0.4464594524054913,-0.4879741990781318,0.2701281406124247,-0.0035033920642003,7.818018957247283e-05,0.001236813781691,5.889882326990402e-06,1.0880865087441231e-08,-1.5285962173977293e-05,12077,0.855225,3.950816,14.148117
0.417235003292424,-0.5461188129577015,0.2722588057808673,-0.0034526290700917,0.0001274285763139,0.0013377960810481,6.420503965145832e-06,-5.099906754947155e-07,-1.6641268418761846e-05,12078,0.985762,4.165193,13.762167
0.3645699640826682,-0.5083028509158025,0.2801533553270633,-0.0033243407785095,0.000155208153421,0.0014327642893804,6.896360626432516e-06,-1.0133737566705397e-06,-1.78486387497754e-05,12079,1.118024,4.352239,13.308729
0.2632270710803122,-0.4473605842277703,0.3156178915078204,-0.0031088701753317,0.0001616537551003,0.0015273570918486,7.242679873352053e-06,-1.480090965638505e-06,-1.8733286702984363e-05,12080,1.264758,4.483366,12.855933
0.1381277957353635,-0.4012586420172779,0.3610619355127007,-0.002804713596983,0.0001489278828678,0.0016304981987995,7.498378201177935e-06,-1.958802517749896e-06,-1.939683606465933e-05,12081,1.410522,4.532014,12.415939
0.0457614134206077,-0.3557075014671518,0.3904835231732958,-0.0024089572392721,0.0001194710740533,0.001738913328013,7.764200655892718e-06,-2.4987707710392757e-06,-2.0088574963049032e-05,12082,1.58474,4.550816,11.899463
-0.0901722902260269,-0.3021493846344524,0.3936338837083595,-0.0019177569191695,7.49727612213293e-05,0.0018362347541225,8.160044656773952e-06,-3.172338578199258e-06,-2.1109045820298047e-05,12083,1.805929,4.638794,11.248658
-0.2962758975213708,-0.188368089166206,0.3379659621324912,-0.0013377772944534,2.1597241557930383e-05,0.0018977079908308,8.69823506584273e-06,-4.012723708935302e-06,-2.249084480252295e-05,12084,2.062905,4.695831,10.507585
-0.3987684077289996,0.0145421627338334,0.2690423664812835,-0.0006862221499594,-2.9929234172037343e-05,0.0018833513312502,9.234885769459231e-06,-4.945953496319052e-06,-2.3872831401651173e-05,12085,2.365666,4.68808,9.723555
-0.3494197446979429,0.2438414802767846,0.2165313118318813,2.325678674419988e-05,-7.410664242536814e-05,0.001770240770608,9.579168131673132e-06,-5.86839462458045e-06,-2.477128083637746e-05,12086,2.710387,4.584366,8.975833
-0.374507377803248,0.4204503974829938,-0.0129907893605079,0.000777830227586,-0.0001101698845052,0.0015532174722355,9.640873548282544e-06,-6.720954810558839e-06,-2.495474056690721e-05,12087,2.996559,4.192828,8.185529
-0.5786645284656178,0.4959223948028221,-0.4650348321862282,0.0015557392165486,-0.0001370673338975,0.0012232208923628,9.529427355135136e-06,-7.496276918160561e-06,-2.4694646599828416e-05,12088,3.426989,4.159716,7.234739
-0.7445662476684018,0.4829453168275034,-0.7957523335542745,0.0023269374313194,-0.0001559535246988,0.0007759017048195,9.506295716523944e-06,-8.235762698198084e-06,-2.4637883778092943e-05,12089,3.898393,4.504336,6.126199
-0.7048420663874726,0.4642855149836037,-0.8228483134328867,0.0030878932986531,-0.0001658872672849,0.0002252450729593,9.830302950157604e-06,-9.01703490449874e-06,-2.5425455575909247e-05,12090,4.062755,4.630103,5.028464
-0.5722642953868541,0.4811263505777857,-0.773111650781048,0.0038642952893751,-0.000163378965858,-0.0003939546532456,1.053805929458234e-05,-9.89099562865946e-06,-2.7150284061143893e-05,12091,3.9078,4.562687,4.096459
-0.4502844442144257,0.4857835989394688,-0.7972959990967964,0.0046977189139804,-0.0001463849245542,-0.0010207414694573,1.131681267840526e-05,-1.0765951421100798e-05,-2.9032677799774277e-05,12092,3.637133,4.430324,3.149306
-0.2544193070988523,0.4676412008746595,-0.8135909309925812,0.0056606351400068,-0.0001132249342084,-0.0015567110309043,1.176749668813249e-05,-1.1451499639936405e-05,-3.0076776667166396e-05,12093,3.433903,4.519619,2.087543
0.0116507196323073,0.4540502361049784,-0.7840925955724849,0.0067749024458075,-6.408574605620257e-05,-0.0019584227626126,1.1761804459650012e-05,-1.1879171248191338e-05,-2.996693280929582e-05,12094,3.263285,4.731781,0.818193
0.1630068147235765,0.4244934890660569,-0.7289574876862452,0.0080066820626349,-1.91383368786544e-06,-0.0022400448298523,1.1376924522282975e-05,-1.2114643000434752e-05,-2.890219194945893e-05,12095,3.063171,4.993286,-0.734656
0.1568584898208752,0.3734459939214196,-0.6705847783153407,0.0093152486694595,6.852950648637046e-05,-0.0024205953353107,1.0689261028325188e-05,-1.2197616348302018e-05,-2.7070095975597485e-05,12096,2.813294,5.201322,-2.449486
0.1518560484313296,0.3361844274959133,-0.6237901317320317,0.0106257261142378,0.0001393922357698,-0.0025527209482635,9.847598528109848e-06,-1.2157156406702167e-05,-2.4833786291780303e-05,12097,2.536594,5.319488,-4.253697
0.2067862250842392,0.3235602109561962,-0.5491997369829971,0.011900152135784,0.0002071483798353,-0.0026560879378606,9.060402470141767e-06,-1.2075596988797208e-05,-2.2717687097594945e-05,12098,2.310368,5.369768,-6.157645
0.2402953502131802,0.3252256403503994,-0.4414739290208992,0.013142859046081,0.0002729413065754,-0.0027123919558219,8.30346626557453e-06,-1.2007578794937766e-05,-2.0669190062562404e-05,12099,2.13483,5.522612,-8.234493
0.2274264370225704,0.3399746928296532,-0.3465995653026973,0.0143437193392762,0.0003379632625356,-0.0027214643182391,7.291470870638577e-06,-1.1866341144922949e-05,-1.7974090673855307e-05,12100,1.975688,5.720374,-10.503538
0.2087296965508759,0.3523170923877987,-0.2843919481630083,0.0154974660300619,0.0004057499227869,-0.0026843097918857,5.842018009239317e-06,-1.1485909125182578e-05,-1.4178126738320683e-05,12101,1.827683,5.933313,-12.874611
0.1993220699895641,0.3384521062018568,-0.2463449650180345,0.016599019304656,0.0004774298228925,-0.0026031745112771,4.076470528368365e-06,-1.0845623604262704e-05,-9.599713838039185e-06,12102,1.68912,6.146176,-15.319491
0.184431866765846,0.3065011217766932,-0.2134587976869341,0.0176385158960077,0.0005512552799798,-0.0024880476256832,2.1557042653560106e-06,-1.0070318719211196e-05,-4.6515935767414495e-06,12103,1.570452,6.372922,-17.825726
0.1674090105239657,0.2797331525162033,-0.1810561232329518,0.0186191289654407,0.0006267587307185,-0.002345189888147,7.265704345553679e-08,-9.242527561387165e-06,6.975545262569806e-07,12104,1.477574,6.62739,-20.411134
0.1571386267923664,0.2693491842903466,-0.151820861739951,0.0195565471893675,0.000703487040335,-0.0021792675126777,-2.104248094861614e-06,-8.40894213068922e-06,6.295200439490204e-06,12105,1.394038,6.927283,-23.079112
0.113220066193698,0.2627216367850141,-0.1118499994105783,0.020451611121008,0.000780550944356,-0.0019962082166986,-4.174490739798893e-06,-7.61623481632788e-06,1.1636213955659537e-05,12106,1.323287,7.253459,-25.800312
0.0160717782824161,0.2475468315311039,-0.0689509379244607,0.0212920153971743,0.0008569883371632,-0.0018016877588903,-6.115514164071152e-06,-6.814405075524767e-06,1.6645740281698715e-05,12107,1.267541,7.544992,-28.540412
-0.0632936750727243,0.2212990164521846,-0.0635883952345452,0.0220654521408278,0.0009309670766633,-0.0016017218477513,-8.057470847232366e-06,-5.864020532282014e-06,2.163568611811526e-05,12108,1.233628,7.806304,-31.350954
-0.0830793565227373,0.1670231267086989,-0.0850319672647012,0.0227526216509558,0.0009996176921189,-0.0014028091156851,-9.991093484063802e-06,-4.711347741650811e-06,2.6578367318794456e-05,12109,1.213552,8.02767,-34.286766
-0.1045270055730829,0.1198493847133092,-0.080173856606924,0.023346809949605,0.0010599038079558,-0.0012105313464204,-1.1826247661426936e-05,-3.4389454197008392e-06,3.1248215797599865e-05,12110,1.227667,8.218129,-37.412895
-0.1532284861285471,0.0873571727427647,-0.0624815845167741,0.023856256618746,0.0011082707276408,-0.0010295490725527,-1.365695833162801e-05,-2.086908601207468e-06,3.588829485750536e-05,12111,1.256747,8.486102,-40.734227
-0.1747633161611203,-0.0744367018955759,-0.0684570797371866,0.0242906811084418,0.0011397532421123,-0.0008641126107009,-1.5633085971992584e-05,-6.3584261907592e-07,4.089074316593143e-05,12112,1.299575,8.699099,-43.934847
-0.1569649542520682,-0.3938482283427265,-0.0696466822709392,0.0246682894089585,0.0011477222610385,-0.000717574363912,-1.7616014118188544e-05,8.119888492112336e-07,4.591636115381739e-05,12113,1.298749,8.919813,-46.98884
-0.1379140939365683,-0.6426144440496935,-0.0425246634413905,0.0250110979955107,0.0011284207090031,-0.0005935935457144,-1.9310193305317543e-05,2.1004062914915454e-06,5.021161845261631e-05,12114,1.28512,9.523605,-50.131004
-0.1301402563778499,-0.7113405262073836,-0.0108949700452968,0.0253460345173763,0.0010811087417246,-0.0004960577883713,-2.064846142585141e-05,3.2353405104681203e-06,5.359185673372019e-05,12115,1.169421,9.818845,-53.161719
-0.1099657521821378,-0.7578330279664001,0.0153511209944702,0.0257161080214027,0.0010057527743156,-0.0004279260619285,-2.1756658344055445e-05,4.3265063874963854e-06,5.6373100480239584e-05,12116,1.101434,10.006366,-56.106427
-0.0620777693703925,-0.8288902492394373,0.0420082632789299,0.0261834082981428,0.0009045596402643,-0.000391314158037,-2.269690098613025e-05,5.397656050168409e-06,5.872206901032783e-05,12117,1.050124,10.054161,-59.08631
-0.0140383642255215,-0.7845221029345898,0.0669175837420794,0.0267607584503292,0.0007790762347351,-0.0003864190016236,-2.346551267437733e-05,6.4267213999582255e-06,6.0633238434384216e-05,12118,1.035155,10.223414,-62.179296
0.0081451320777736,-0.624218863787814,0.0848502523008595,0.027406909958147,0.0006302958086337,-0.0004108314257581,-2.4116137398590356e-05,7.467920297347607e-06,6.223913566809851e-05,12119,1.024111,10.451526,-65.389503
0.0284690242402005,-0.4878852790447822,0.080936421165312,0.0280567661768367,0.0004617523165366,-0.0004593569606118,-2.469702112997973e-05,8.581796125808905e-06,6.366227018554164e-05,12120,0.974899,10.631815,-68.729753
0.063026917395852,-0.4433285382932091,0.0550002890886736,0.0285939459436942,0.0002793490321768,-0.0005227284988618,-2.5082093343739464e-05,9.727960840621016e-06,6.45816549364953e-05,12121,0.867076,10.770472,-72.214562
0.0806830272862575,-0.417200053338328,0.0290441181156791,0.0289707236205508,8.819144337486205e-05,-0.0005964895685699,-2.503899478063404e-05,1.080355957252065e-05,6.439799306267461e-05,12122,0.704092,10.879323,-75.785864
0.0755150684287339,-0.3052306930694755,0.0104249496414461,0.0292142276471895,-0.0001067496737441,-0.0006811052952343,-2.452772161026576e-05,1.1749994486162949e-05,6.300533412155343e-05,12123,0.50079,10.944861,-79.367135
0.0694704078862955,-0.1319005262666799,-0.0033663206677667,0.0293474793211737,-0.0002985718041648,-0.00077642478371,-2.3752559343246117e-05,1.257337131603962e-05,6.0935313801169184e-05,12124,0.287089,10.927217,-82.909527
0.0656033590652195,-0.0086269449531384,0.0009059286437302,0.029425521305651,-0.000478580898686,-0.0008841273856102,-2.285286369640053e-05,1.3266589764731204e-05,5.85564913730344e-05,12125,0.091699,10.877541,-86.400681
0.0667833315759067,0.0171211012083088,0.0317777432065005,0.029472605680489,-0.0006322484362114,-0.0010014738039106,-2.174567998121395e-05,1.378564853501652e-05,5.5657375452658966e-05,12126,-0.069527,10.830961,-89.864997
0.0565498581108927,0.0158413063478661,0.0550516917358201,0.0294744554276262,-0.000737457956955,-0.0011202334030635,-2.0319281942768357e-05,1.4104687651582765e-05,5.194835259225227e-05,12127,-0.224857,10.740468,-93.304612
0.0476416362492204,0.0639604894387296,0.0617771702092204,0.0294379174113581,-0.0007644747201796,-0.0012309866514677,-1.858563233527155e-05,1.4253330069239797e-05,4.7458005938346215e-05,12128,-0.410899,10.547009,-96.719403
