AccX_processed,AccY_processed,AccZ_processed,GyrX_kalman,GyrY_kalman,GyrZ_kalman,MagX_processed,MagY_processed,MagZ_processed,PacketCounter,Roll,Pitch,Yaw
-0.4334829538307445,0.0827616960129992,0.5376955513660523,0.0004756339009674,-0.0003698669117941,0.0008653431310062,1.0570348318766468e-07,5.904509442947323e-07,1.7581981827893337e-07,11582,0.276586,-1.50011,1.235359
-1.2712010490564374,0.2444265983952283,1.5816817056503902,0.000540621661409,-0.0003343167186017,0.0009670690391255,1.3006855190105513e-07,4.890554123020477e-07,2.980480459867003e-07,11583,0.276899,-1.507826,1.278907
-1.6644967137846272,0.3204127471971817,2.073855737444596,0.0006153090892561,-0.0002586036779246,0.0010768296095256,1.4369094469601758e-07,4.1169822539082834e-07,3.81031176108561e-07,11584,0.273643,-1.508303,1.252412
-1.199473053619478,0.2314026002413867,1.5003484475134636,0.0006900464142952,-0.0001803306879569,0.0011858921182769,1.46570661572552e-07,3.583793835610747e-07,4.247692086445153e-07,11585,0.266849,-1.504542,1.201946
-1.2131685595079298,0.2343226709618079,1.522398204632105,0.0007595361403,-0.0001169670863101,0.0012886245811225,1.3870770253065836e-07,3.290988868127863e-07,4.292621435945629e-07,11586,0.271692,-1.509447,1.26835
-1.1307353016183397,0.2188640990437571,1.4255029172221425,0.0008218958125586,-7.41876413175319e-05,0.0013823472488094,1.340581055899367e-07,1.340393394315251e-07,4.3769991838069756e-07,11587,0.269392,-1.510443,1.248769
-0.9621353435211292,0.1847352468990719,1.2206799792302951,0.0008746797935879,-5.0268379140418666e-05,0.001463057960541,8.791349412629991e-08,1.7481805221397942e-07,3.155392048688496e-07,11588,0.266606,-1.51599,1.285625
-0.9081489582965936,0.1714376577106324,1.1580769877910375,0.0009157067738391,-2.9547250699829582e-05,0.0015256754224102,-2.5191499730435293e-08,3.994816783666022e-07,2.2469728274642282e-08,11589,0.265207,-1.519625,1.294787
-0.7823245684942934,0.1450594395174954,0.9987996515717378,0.0009439057582364,-5.741969693121656e-06,0.0015677442202815,-1.587854214225427e-07,6.711580292535513e-07,-2.969867694650289e-07,11590,0.256857,-1.519228,1.279567
-0.6671247021928335,0.1235631518789137,0.8582443691271272,0.0009588472116534,1.8370149012217064e-05,0.0015888842107402,-2.363191303271155e-07,9.096004328151854e-07,-4.690517280745757e-07,11591,0.256216,-1.523059,1.288433
-0.5651224884054549,0.1064010168681166,0.7404255546663746,0.0009614053248332,4.7199260049459065e-05,0.0015898935145036,-2.1615272510555626e-07,1.037998027636078e-06,-4.369871069140638e-07,11592,0.241845,-1.514144,1.257597
-0.4796372915911016,0.0859724874338516,0.5689121946464168,0.0009540597529545,8.76162715673146e-05,0.0015737783001752,-9.923511295879001e-08,1.0491462198672117e-06,-2.239117562228194e-07,11593,0.216414,-1.329221,1.235453
-0.4690741731781288,0.0762217869596161,0.3898676564044284,0.0009377174101007,0.0001425951097196,0.001541593491508,1.1599691618553998e-07,9.779575779267885e-07,1.9864265790384785e-07,11594,0.326195,-0.962297,1.180792
-0.4184707985803714,0.0706574265495285,0.1924988080681716,0.0009117540725874,0.000212462575692,0.0014923758121268,4.336775612158162e-07,7.5433015798443e-07,8.668765672050757e-07,11595,0.488288,-0.688449,1.090455
-0.2930451184708011,0.0645364666217033,0.0223812490038723,0.0008758291241923,0.0002945944170876,0.0014260375150055,8.027387072346708e-07,3.150812741602471e-07,1.6671365874950708e-06,11596,0.640611,-0.48567,1.057289
-0.1522042611698001,0.0556565936719505,-0.1173001786318127,0.0008290647287088,0.0003814460283386,0.0013423586703046,1.1080768645822347e-06,-1.9444896838900828e-07,2.3600489107277386e-06,11597,0.798536,-0.326049,1.029454
-0.020755956806769,0.0410288387674205,-0.2564513778639127,0.0007721326209978,0.0004686991082416,0.001243338162164,1.2638952301602003e-06,-5.407811142505711e-07,2.773598464835955e-06,11598,0.970669,-0.180606,1.008127
0.106545014784406,0.0211714072229165,-0.3862724231627791,0.0007076211235987,0.000554721863875,0.0011338995879002,1.291356249588172e-06,-7.114538504076387e-07,2.9344594258689763e-06,11599,1.138219,-0.052182,1.045869
0.2339497016230214,-0.0027384981946587,-0.5144939543372911,0.0006386349441314,0.0006344300817206,0.001020523139604,1.2703087528868642e-06,-8.616301862506134e-07,2.989075171669602e-06,11600,1.277575,0.061385,1.127467
0.3529135037918471,-0.0279134212957547,-0.6495286751126206,0.0005696801784322,0.0007005223799073,0.0009126109473182,1.2601412684318689e-06,-1.0114883190455378e-06,3.0448197730512647e-06,11601,1.381754,0.144944,1.189619
0.4579550422568993,-0.0533567461930484,-0.7819022032291112,0.0005030968629906,0.0007493138152043,0.000815017839018,1.2756379632274812e-06,-1.0573345627923742e-06,3.111684841635788e-06,11602,1.434976,0.206474,1.201335
0.5621636453526238,-0.0790920956185077,-0.9036493039189598,0.0004387551116959,0.0007803549081528,0.0007275813138233,1.2875389491117932e-06,-9.470033048603836e-07,3.109122324737469e-06,11603,1.388335,0.250222,1.198333
0.6877956812960393,-0.1034477748663612,-1.01666702976806,0.0003763983159469,0.0007944476351786,0.0006496870693689,1.2650545626180877e-06,-7.004753219705954e-07,2.973363368840533e-06,11604,1.191693,0.283276,1.183988
0.8244339938050612,-0.1238088985373772,-1.1200982893852762,0.0003144516640666,0.0007954418028999,0.0005778063875736,1.2200357560438448e-06,-3.667184132470565e-07,2.7653712336175797e-06,11605,0.916733,0.255358,1.096634
0.9402253703038758,-0.1404259015302761,-1.2092588332273886,0.0002519111708705,0.0007850316506353,0.0005098165970607,1.1652968791056552e-06,-2.265071867510608e-08,2.544852275724955e-06,11606,0.713891,0.13702,1.057313
1.0288823089901908,-0.1574654922656341,-1.2909551587524934,0.0001884257478557,0.0007627839094594,0.0004451426786243,1.0876790761175458e-06,2.251330836004393e-07,2.2903031341253342e-06,11607,0.627031,-0.047149,0.999399
1.1057923915107213,-0.176382826362275,-1.3759527027151737,0.000122206664886,0.0007303885887722,0.0003802425036961,1.0042630574155669e-06,3.048449022185826e-07,2.051725089309265e-06,11608,0.618513,-0.226895,0.993192
1.179527379707095,-0.1973543322557508,-1.459667578052688,5.026207696457355e-05,0.0006906994401548,0.0003091971701976,9.560375177452233e-07,2.2114484467293867e-07,1.936367643583749e-06,11609,0.678254,-0.307037,1.035153
1.2498267141913155,-0.221032223295057,-1.5347337615133827,-2.838409465995344e-05,0.0006451694204054,0.0002297242177454,9.245888192583516e-07,6.042631564487786e-08,1.8984857163579652e-06,11610,0.787761,-0.291601,1.138663
1.3166899635899434,-0.2393314161659464,-1.6007439381904225,-0.0001127605134364,0.0005942580066544,0.0001429329296339,8.33580426345076e-07,7.1611069546102355e-09,1.7474583723005611e-06,11611,0.881187,-0.272039,1.226319
1.3838243744478769,-0.24520258313277,-1.6579828430657766,-0.0002012788009648,0.0005380989973575,5.0865256244329176e-05,6.654322241887399e-07,1.5088889987893398e-07,1.4346085974022525e-06,11612,0.956432,-0.246012,1.314338
1.4474280251957032,-0.2482361080085088,-1.7070606500363754,-0.0002906982862611,0.0004758753545957,-4.167617093554476e-05,5.056700765109513e-07,2.9098927146874093e-07,1.1518377225600438e-06,11613,1.026131,-0.228359,1.374409
1.494940694549481,-0.2587203417530239,-1.7484758895355532,-0.0003783951092959,0.0004086052758452,-0.0001316887170511,4.138804634093452e-07,2.1070130594933687e-07,1.0198401343213822e-06,11614,1.098722,-0.23327,1.444405
1.5283322054244302,-0.2680319920503737,-1.7810735362950858,-0.0004622663127399,0.0003393616482802,-0.0002179844826764,3.717114879063346e-07,-3.345459619348929e-08,9.782195322406204e-07,11615,1.17799,-0.229933,1.532256
1.5573162504553164,-0.2627994928847197,-1.8050853405976703,-0.0005385032212885,0.0002716471851097,-0.0002972279021327,3.730022051088291e-07,-2.7626738413794944e-07,1.012194376294574e-06,11616,1.259841,-0.21404,1.580336
1.5772178408735489,-0.2472594959842634,-1.8235770321608011,-0.0006017856583831,0.0002103886218964,-0.0003647266893744,4.174119133826836e-07,-4.505087709046312e-07,1.129364496930462e-06,11617,1.355617,-0.195301,1.675788
1.5854067865922783,-0.2358281180060833,-1.8373352603651592,-0.0006491579426546,0.0001583825964195,-0.0004179004065257,4.805576766539561e-07,-5.675026307454196e-07,1.2614862249578567e-06,11618,1.428582,-0.176241,1.804699
1.5903372833643454,-0.2315083896432708,-1.8415926920340389,-0.0006799566368605,0.0001159890091759,-0.0004560045363334,5.317550195512272e-07,-6.163987954080017e-07,1.3287002633717046e-06,11619,1.505274,-0.161057,1.880431
1.5897573205219968,-0.2275331000286451,-1.833465281099208,-0.0006940875786398,8.354335672181006e-05,-0.0004790167956647,5.039444830568533e-07,-5.757850291087932e-07,1.2211480012162204e-06,11620,1.582608,-0.147701,1.964898
1.5766602618330352,-0.2237541857841425,-1.8203490184479063,-0.0006932372501555,6.019403598176935e-05,-0.0004886749439558,3.236957822549883e-07,-4.95789713290846e-07,8.202660906369625e-07,11621,1.645527,-0.11263,2.025699
1.558175424711619,-0.2237143238550672,-1.8082552360069504,-0.0006780251753998,4.567714570649283e-05,-0.00048546761123,3.941561044368873e-09,-3.849977222759526e-07,1.420773682752477e-07,11622,1.69484,-0.075305,2.073952
1.5399889160168894,-0.2268510189544623,-1.7912160268062645,-0.0006479968589593,4.043944058175958e-05,-0.0004686561301142,-3.508867836150555e-07,-1.5978895260299046e-07,-6.119064686689247e-07,11623,1.753431,-0.05187,2.163924
1.5179500738676306,-0.2300986312557478,-1.7642719600590653,-0.0006041891360049,4.36738599592372e-05,-0.0004387249161385,-6.347659240929579e-07,1.5958044103359633e-07,-1.2130716697310508e-06,11624,1.809548,-0.042935,2.235358
1.4903849340000277,-0.2274310987829901,-1.7299321047388967,-0.0005486726162718,5.35843230584209e-05,-0.0003968285926275,-8.201920766679275e-07,4.289705490354528e-07,-1.6129551590569733e-06,11625,1.85458,-0.026938,2.257717
1.454106505461879,-0.2188733428027975,-1.6897791481735858,-0.0004823131047988,7.06841879741509e-05,-0.0003434355340345,-9.380866964063476e-07,5.433532659007718e-07,-1.9068083637162848e-06,11626,1.883025,0.005114,2.281604
1.4117510478383006,-0.2134804894216591,-1.6427791696358274,-0.0004050161249571,9.784547201847535e-05,-0.0002785876480337,-1.0290926064182853e-06,5.142861867600934e-07,-2.1835542971228785e-06,11627,1.870948,0.040565,2.248711
1.371002943589152,-0.2126364303144624,-1.590078361746765,-0.0003165743426152,0.000139100136563,-0.000202256318679,-1.1527250821885753e-06,4.287244569736849e-07,-2.52594631974325e-06,11628,1.85164,0.081998,2.246938
1.3141643375291108,-0.2098018569251795,-1.5399257601103296,-0.0002161127166831,0.0002008814388111,-0.0001140563201057,-1.3591707365215705e-06,3.625271355478167e-07,-3.002001289735727e-06,11629,1.879227,0.220255,2.260783
1.2282997622323597,-0.205133220039549,-1.4995638803946467,-0.0001042245604805,0.0002900626452988,-1.484326171103474e-05,-1.618926906341713e-06,3.955586086439558e-07,-3.5705842178048003e-06,11630,1.960583,0.436779,2.2605
1.143575417422844,-0.2019298878876047,-1.4603822601391945,1.6797056363477506e-05,0.0004144370428956,9.308544586380353e-05,-1.8651715095422733e-06,5.881470091238941e-07,-4.126240465359392e-06,11631,2.016576,0.625993,2.257169
1.0784492178330105,-0.1988913891329996,-1.4076503233364566,0.0001442284444817,0.0005854612585394,0.0002067592406364,-2.085174881226976e-06,8.339310786614765e-07,-4.635640084554377e-06,11632,2.053305,0.767502,2.237492
1.013460637681331,-0.195048961687549,-1.3404664464271456,0.000274099361088,0.0008187921877747,0.0003218280538809,-2.299937025326064e-06,9.575732555616915e-07,-5.135675367033427e-06,11633,2.08764,0.864045,2.256389
0.9484030435030532,-0.1902679518179308,-1.2662901896548386,0.0004043132946892,0.0011243694933361,0.0004360427861534,-2.518883975156025e-06,9.876537299208437e-07,-5.666600511321363e-06,11634,2.111269,0.927874,2.28189
0.9061773443312682,-0.1843930654632977,-1.188170057734372,0.0005349025938222,0.0015064222337037,0.0005494749620722,-2.755873671080744e-06,1.0949634981688709e-06,-6.270691576353709e-06,11635,2.119442,0.962947,2.320441
0.8851503477903044,-0.1791398576267562,-1.1090869784807995,0.0006659461993512,0.0019688019983293,0.0006623457344184,-3.0468408508559145e-06,1.3437801078285449e-06,-7.014247500473284e-06,11636,2.115004,0.969304,2.335092
0.8661950398372759,-0.1742557703487299,-1.0313333816822443,0.0007985903832335,0.0025120586320162,0.0007761577363042,-3.4288806818793947e-06,1.702683926538775e-06,-7.962673243621994e-06,11637,2.036555,0.948031,2.347552
0.835416992602279,-0.168020030025159,-0.9501638625530484,0.0009334304412656,0.0031404935112343,0.0008917678090662,-3.901524872891809e-06,2.1608167604914523e-06,-9.11356062843287e-06,11638,1.919913,0.917932,2.330375
0.7868156154744883,-0.1625665741147171,-0.8643459759813616,0.0010704054133054,0.0038627556044577,0.0010093007287148,-4.434577392984024e-06,2.687414167323068e-06,-1.0398882316261932e-05,11639,1.791636,0.886243,2.280675
0.7276507472206127,-0.1621010773178254,-0.7834952006146993,0.0012105507858941,0.0046861670579342,0.0011301752345276,-4.989883191216278e-06,3.186783058164561e-06,-1.1723902642652584e-05,11640,1.672485,0.88109,2.244371
0.6661822139293723,-0.15790980509437,-0.7100869965267343,0.0013557491752915,0.0056186893747195,0.0012568228978179,-5.507004130883174e-06,3.604437966665552e-06,-1.2960946856311593e-05,11641,1.577967,0.929799,2.177831
0.6056891296052644,-0.1441555585961131,-0.6291485123040268,0.0015057854211965,0.0066605535999507,0.0013897241048997,-5.907736673687448e-06,3.951194301805854e-06,-1.3953645504856042e-05,11642,1.544017,1.054719,2.1124
0.5494674556922379,-0.1490714058619414,-0.5304806153187569,0.0016582874940551,0.0078022155456341,0.0015274420877805,-6.108473159426949e-06,4.102940494868358e-06,-1.4507987127329987e-05,11643,1.593787,1.302082,2.037204
0.4736925855143957,-0.1778452677488622,-0.4327758063251068,0.001809767566939,0.0090282053170813,0.0016677465761685,-6.065823529257197e-06,3.873979455916263e-06,-1.449830508072972e-05,11644,1.794395,1.858647,1.91096
0.3346130003143986,-0.1937223470881705,-0.3583023313035807,0.0019544875532448,0.0103123789719097,0.0018065934035588,-5.8338587007513215e-06,3.4193724812746456e-06,-1.404500419581459e-05,11645,2.17261,2.864012,1.798508
0.1626135039173195,-0.1922348676946946,-0.3068345006072642,0.0020861693392086,0.0116183945092819,0.0019401191116887,-5.469204113408522e-06,3.126826291040052e-06,-1.3317047706010191e-05,11646,2.548192,3.822234,1.76745
0.0314077474703217,-0.1759600676326405,-0.2960333652314726,0.0021975111018108,0.0128958234462558,0.0020644019146344,-4.939976513852489e-06,3.0790241356314805e-06,-1.2248104123669e-05,11647,3.019035,4.716721,1.636365
-0.1122218570880076,-0.131911962296877,-0.3259063770045353,0.0022776662303577,0.014070301616019,0.0021732144244425,-4.203209064831921e-06,3.024074984654335e-06,-1.0671602413203114e-05,11648,3.344735,6.005118,1.536864
-0.3622580803055784,-0.0489459453673461,-0.3809864791843659,0.0023116615974634,0.0150361733517078,0.0022579307915704,-3.2683985291832416e-06,2.750626283226001e-06,-8.56241662586153e-06,11649,3.735077,8.017412,1.391097
-0.6512192118083898,0.1103431690140468,-0.5169562238186519,0.0022912672561665,0.0157368586462209,0.0023136924339737,-2.2061409838437126e-06,2.179926527087766e-06,-6.095612453873968e-06,11650,4.503299,10.444363,1.429775
-0.8464958489979465,0.3244288254032053,-0.7373088762752902,0.0022152371006168,0.0161672399532109,0.0023394338064506,-1.1091523777606172e-06,1.2273016966334408e-06,-3.474942607046368e-06,11651,5.608746,12.882031,1.750598
-0.9153472163517242,0.4736097594125237,-1.0861153606482108,0.00208375279471,0.0163300179084937,0.0023348620037804,-4.66047987488129e-08,-8.992874513451284e-08,-8.314015147013064e-07,11652,6.893553,15.092391,2.124451
-0.9555124252408502,0.5078003220976823,-1.72833334486185,0.0019019845007783,0.0162616616612565,0.0023024168134806,8.863437531416475e-07,-1.4046854128572548e-06,1.572089805732375e-06,11653,7.907774,17.204547,2.512434
-1.0920227977520884,0.4896038622421028,-2.4275796213641856,0.0016730872678531,0.0159818025511075,0.002243035496241,1.6085035215092577e-06,-2.246888826094914e-06,3.443517914661728e-06,11654,8.424171,19.398363,3.197781
-1.248942755982802,0.4590960441855429,-2.6732364311071795,0.00139828699197,0.015492520412637,0.0021561255656298,2.1449688103634813e-06,-2.5572035624862654e-06,4.798582496929241e-06,11655,8.647856,21.715732,4.186349
-1.2731203859887228,0.4259925624357182,-2.4768686681632506,0.0010839933340019,0.0148286360025545,0.0020435537420373,2.5749853109368e-06,-2.652475923912376e-06,5.874136642762422e-06,11656,8.818255,23.863252,5.078839
-1.284835609082501,0.4068125649706678,-2.238091304354982,0.0007410809451641,0.0140507721456311,0.0019090143727925,2.9716565362402352e-06,-2.792203154262952e-06,6.871338045553052e-06,11657,9.153024,25.787341,5.813183
-1.4158723394817048,0.3866099999554155,-2.1802321281394885,0.0003763277907037,0.0131870306124408,0.0017534579709713,3.346744757799267e-06,-2.962899794450667e-06,7.793753500003259e-06,11658,9.524596,27.560913,6.399435
-1.4934095714034132,0.3440097813570804,-2.320578253673562,-6.723885128479771e-06,0.0122371689551499,0.0015753419272852,3.629053510161216e-06,-3.036463043627596e-06,8.487918364913686e-06,11659,9.864841,28.984555,6.548605
-1.433131567487321,0.2592035803282833,-2.47454863278493,-0.0004035150378771,0.0111973205773541,0.0013723984881827,3.776855045822885e-06,-3.01290886102474e-06,8.891578171403452e-06,11660,10.165522,30.087434,6.599576
-1.3974700360210068,0.1366072882768013,-2.3677830601030165,-0.0008102795981261,0.010044379865276,0.0011402698935119,3.804283517011711e-06,-2.9882230651597853e-06,9.026077226979384e-06,11661,10.468553,30.988607,6.735059
-1.4038904506092074,0.0548788123192747,-2.0553500142264536,-0.0012158989978649,0.0087856400220461,0.0008761940988723,3.692827785451392e-06,-2.986575200401908e-06,8.827651112354973e-06,11662,10.662633,31.833425,7.054452
-1.3334011158873271,0.048031007083628,-1.789394857997578,-0.001600180028705,0.0074631938362285,0.0005790505156142,3.414357828601948e-06,-2.9795003505695185e-06,8.243157904241517e-06,11663,10.696436,32.593187,7.501798
-1.210110299761147,0.0490018501560515,-1.6198678408937863,-0.0019374683308662,0.0061202294816948,0.0002463229553182,3.015200722620993e-06,-3.0308057332995115e-06,7.403886347371781e-06,11664,10.70348,33.065586,7.831438
-1.1238544698245718,0.0356042193558048,-1.488061804094642,-0.0021922379103021,0.0048174240489373,-0.0001251647492184,2.5967578541630298e-06,-3.251092339630907e-06,6.554987681511342e-06,11665,10.816016,33.331007,8.138536
-1.0793845551086358,0.0336152525469961,-1.3244189079592033,-0.0023456581205298,0.0036019324612159,-0.0005365421572006,2.218895688079839e-06,-3.581192741707914e-06,5.815982090628755e-06,11666,11.069409,33.486898,8.524193
-1.0270032654150547,0.0027020322710851,-1.0635420068860428,-0.0023973118163255,0.0025046982288972,-0.0009869371753171,1.876513993796831e-06,-3.838499391134676e-06,5.136252856945257e-06,11667,11.308665,33.538803,9.037011
-0.937354974110501,-0.0674226293473168,-0.753027810799787,-0.0023496489152654,0.0015700082324345,-0.0014740272935498,1.5652414382810729e-06,-3.9451857218186736e-06,4.4669374052470605e-06,11668,11.518733,33.558728,9.371737
-0.8342561934416255,-0.0852103845454322,-0.4814189414983263,-0.0022170601203717,0.0008485679624714,-0.0019929398531539,1.2976769053582465e-06,-3.941571684725742e-06,3.8091835977398015e-06,11669,11.473502,33.512736,9.519819
-0.7334804313316485,-0.035625915261935,-0.2543465136446901,-0.0020112551421488,0.0004154553509665,-0.0025380853773263,1.0563839446267065e-06,-3.858256179763915e-06,3.125358045422672e-06,11670,11.207981,33.403526,9.490409
-0.6165918306184583,-0.0060309664443887,-0.0618836509081744,-0.0017416287499016,0.0003795671763662,-0.0031025188390955,7.838296706575203e-07,-3.650223611660759e-06,2.312322190958055e-06,11671,10.746372,33.147759,9.285964
-0.4950557203350544,0.0088270639571894,0.1421658128349162,-0.0014322691120827,0.0008778740277743,-0.0036752483929942,4.4029214835590555e-07,-3.2924739805980195e-06,1.3112181894094638e-06,11672,10.271597,32.742694,8.988929
-0.4058884767770361,0.0647603528569099,0.5316781307423479,-0.0011214588060157,0.0020916053165693,-0.0042404967262504,7.505972132608416e-08,-2.889243342037311e-06,2.697792811442606e-07,11673,9.844303,32.202034,8.64253
-0.3514574582708349,0.0986323936644457,1.1297043420638353,-0.0008263294772295,0.004080592871232,-0.0047901060732473,-1.7578140394051615e-07,-2.6018908803012985e-06,-4.592838573348677e-07,11674,9.487522,31.675497,8.321783
-0.2948594100310672,0.0718870148013685,1.6154003754285942,-0.0005433584621054,0.0067671756231447,-0.0053238030962048,-1.7025328038664e-07,-2.527365385947286e-06,-5.122625033731994e-07,11675,9.163937,31.587545,8.084686
-0.2289542760777633,0.0783851684078549,1.7800754145190227,-0.0002651167163564,0.0100151955482409,-0.0058427517964603,1.743411338200142e-07,-2.6606766217051816e-06,3.206487719873108e-07,11676,9.138301,32.144084,7.985699
-0.1709358556560213,0.1435034204615244,1.8011278613566284,3.053895173667329e-05,0.0135612413864656,-0.0063535674911192,8.851399054145454e-07,-2.980602942993847e-06,2.092646684465976e-06,11677,9.483301,33.258416,8.296479
-0.1316105428436616,0.180113956582633,1.8279638762175177,0.0003551717462325,0.0170886283465277,-0.0068602291785114,1.9659678633328733e-06,-3.4832600085490188e-06,4.788343737203352e-06,11678,9.974811,34.945342,8.785899
-0.2122959251072687,0.1474113989878404,1.850824054051001,0.0007090853710587,0.0201979489348923,-0.0073640472473594,3.4015727174589358e-06,-4.041925442794723e-06,8.36535535785782e-06,11679,10.420907,37.297067,9.255905
-0.4713467547475155,0.1042656684563044,1.86611895728678,0.0011035136402794,0.0222654303330765,-0.0078716282478186,5.144220921164119e-06,-4.395531954142996e-06,1.2724841997467814e-05,11680,10.836282,40.406902,9.666353
-0.745436472365868,0.135943409082529,1.868709898074536,0.0015557180935633,0.0223969816807893,-0.0083938196201139,7.148519116438426e-06,-4.318352988284669e-06,1.776692031544718e-05,11681,11.156123,44.439282,9.944707
-0.8133066002533058,0.2849994860467002,1.902020364859302,0.0020412746329483,0.0201502648165126,-0.0088837984413726,9.38457765772853e-06,-3.706500242088693e-06,2.341504156168675e-05,11682,11.192544,49.420702,9.894817
-0.6402200617475566,0.476598419838652,1.8600519403236269,0.0024892419725482,0.0155549055247741,-0.0092271056297889,1.1733141123943682e-05,-2.50435368747676e-06,2.9331051679457115e-05,11683,10.627161,54.829458,9.127591
-0.5409196526322436,0.5712300858502903,1.7852575148828365,0.0027940735730663,0.0087410310251668,-0.0092587075550856,1.394944435241486e-05,-7.063522729236628e-07,3.476796189299196e-05,11684,8.604326,59.489231,6.498954
-0.553395170268944,0.6129134655974261,2.302898727476264,0.0027915000940869,0.0001790643869269,-0.0087286494986004,1.5780143210189836e-05,1.46858660325198e-06,3.890804770196362e-05,11685,4.960265,62.954831,2.33344
-0.0055786087286358,0.6051405644391138,3.455042566975745,0.0024492726118358,-0.0096744585845478,-0.0075396335959462,1.7022814306247778e-05,3.6064248402553552e-06,4.116058518827041e-05,11686,0.662021,64.046702,-2.427091
1.1549912353625986,0.3244312224667987,4.212539677218745,0.001882752467588,-0.0203453433316109,-0.0057618995992363,1.7504148350833005e-05,5.3669793679146125e-06,4.117555719344268e-05,11687,-3.636471,61.341171,-5.868885
1.8979614770347129,-0.0814771056813059,4.163610227019678,0.0012563742539085,-0.0308887492131516,-0.0035001932061027,1.70855723854223e-05,6.634082697156882e-06,3.88059295230813e-05,11688,-5.684114,56.958145,-6.911794
1.792360334697243,-0.1453262615199017,4.058305505722712,0.0008570260578542,-0.0398632119611421,-0.0009767535766184,1.5732941693116136e-05,7.427971691607986e-06,3.422155369134048e-05,11689,-5.914841,51.373269,-6.104558
1.5852239617027823,0.0583632716741565,4.286702929108802,0.0007899112659142,-0.0465579949689975,0.0016698676142968,1.3577668490887426e-05,7.768632633658005e-06,2.8006636218756625e-05,11690,-5.325875,45.1138,-4.699261
1.662702281970639,0.033920181265225,4.445047640413062,0.0009572474962555,-0.0509890491293101,0.0043907763749569,1.0830046499123751e-05,7.707607988093631e-06,2.0851349906424724e-05,11691,-4.381688,38.517744,-3.495513
1.3491913365314767,-0.2236523021757327,4.30504641391563,0.0012570291992036,-0.0532833682068886,0.0070498178580673,7.698567866390558e-06,7.302589588868651e-06,1.3286980830531795e-05,11692,-3.067824,31.822982,-2.705632
0.2095035555343333,-0.3878674233584374,3.910912063540165,0.0014853264851433,-0.0540545655513036,0.0094629427810899,4.40767446487163e-06,6.494123674793031e-06,5.79068592682915e-06,11693,-1.354368,25.166027,-2.285148
-1.1270370818423707,-0.5062438717844042,3.3077782727035534,0.0015568735577283,-0.0535445565856635,0.0114768397068513,1.1052474031928784e-06,5.210562722014164e-06,-1.3205307852326008e-06,11694,0.602336,18.693651,-1.828598
-1.8115243213011143,-0.666662643448959,2.68972696423,0.0015285232392442,-0.0515898498332962,0.0129464267038684,-2.210397146179779e-06,3.568152272251388e-06,-8.085446002423095e-06,11695,2.679028,12.463715,-1.06049
-1.8855863811785916,-0.8613162339390581,2.25722110200698,0.0014158678439269,-0.0483746512739095,0.0137149457932391,-5.56998555323909e-06,1.880203495965828e-06,-1.4697234487264345e-05,11696,4.679458,6.695291,-0.252658
-1.904312151482023,-1.3069095597015612,2.030111950830174,0.0012572045965961,-0.0442539693068097,0.0136233171573481,-8.91420346908061e-06,4.3522036595613513e-07,-2.114903497004648e-05,11697,6.253947,1.575611,0.453604
-1.8596037785367483,-1.9316059543382107,2.0173435734233784,0.0010660509184991,-0.0393983795734019,0.0126094496371586,-1.206090257523936e-05,-7.404239760170486e-07,-2.707578420909469e-05,11698,7.051017,-3.089722,1.661192
-1.6676457046657287,-2.2206376158736805,2.2344099224563414,0.0008112006584191,-0.0338728179746602,0.0107263212817649,-1.4754931389991638e-05,-1.7944034736562927e-06,-3.196033365325179e-05,11699,7.732635,-6.950166,2.089802
-1.5799428351542055,-2.0459368544232084,2.4268900690754918,0.0004881705248978,-0.0277002318127762,0.0081198625776137,-1.6752932583568124e-05,-2.7070066974912983e-06,-3.542701267064339e-05,11700,8.126709,-10.422697,2.023377
-1.5521497776074933,-1.8133174011200253,2.319080211851902,0.0001027464315644,-0.0207862896115646,0.0050880781645921,-1.779304599314756e-05,-3.2393177917970198e-06,-3.711762046788442e-05,11701,9.23225,-13.991426,1.385052
-1.551899005643309,-1.715993596932741,2.034550460753733,-0.0003307397962242,-0.0133376140463375,0.0018715447793327,-1.7626482404318013e-05,-3.2897515696492717e-06,-3.660093543853841e-05,11702,10.514036,-15.537118,0.181025
-1.5242361274383502,-1.5737212935925018,1.7813182454768546,-0.0007773885228539,-0.0059011012710135,-0.0013283455837445,-1.626121679390582e-05,-2.990590122444596e-06,-3.386126528472887e-05,11703,9.89526,-14.15528,-0.097688
-0.7857212008970236,-1.238327359022678,1.5982547776642824,-0.0011889246331294,0.0008501776882232,-0.0041659375718442,-1.4073917184201594e-05,-2.435833349456377e-06,-2.9619769148615277e-05,11704,7.867928,-11.395344,-0.763845
0.9361337760708268,-0.7583079662717236,1.4799543676898856,-0.0014953129384187,0.0059502037535374,-0.0061683858946152,-1.1595839888710031e-05,-1.681180292406e-06,-2.4875316450862146e-05,11705,7.261159,-7.751231,-1.609915
2.6893045441049197,-0.3393413677023587,1.3462947919890818,-0.0016626095120978,0.0089725578069046,-0.0071238653822206,-9.277928825263245e-06,-9.446438900814316e-07,-2.040794869906024e-05,11706,7.090171,-4.623445,-1.692263
3.595065716601669,-0.0475906250732464,1.1512081923267177,-0.0016967259986713,0.0101012889298983,-0.0070890868445459,-7.47315139958121e-06,-4.568475291270814e-07,-1.685979846472993e-05,11707,6.054446,-2.580767,-0.76706
3.771242483583665,0.220067077193347,0.96395206861954,-0.0016091731553687,0.0096358804301638,-0.0062284504165314,-6.397918143976546e-06,-1.4109287249008518e-07,-1.4715794165507466e-05,11708,4.614718,-0.78917,-0.031707
3.6069219808054473,0.3799401403956045,0.7618620748041436,-0.0014367512839558,0.0082893575909428,-0.0049543474459902,-5.942562434717112e-06,2.332599449170585e-07,-1.3822809234824003e-05,11709,3.622009,-0.10372,-0.175031
3.408512411120573,0.3800506860922703,0.4961153966740888,-0.0012042448751888,0.0064589901725721,-0.0034907609734489,-5.756673747867497e-06,6.503401077979157e-07,-1.347413096022432e-05,11710,3.198429,-0.04319,-0.280556
3.4048585637534687,0.405328555106379,0.2452259001720369,-0.0009238023155777,0.0041976335846592,-0.0018717151892913,-5.62893296680023e-06,9.414420593992428e-07,-1.3217565226367197e-05,11711,3.059002,-0.103422,-0.292983
3.407082810055234,0.4882440748942432,0.0591290272880992,-0.000632889774379,0.0018480774089662,-0.0002911296150321,-5.55283566245802e-06,1.0782129682197014e-06,-1.304820922667978e-05,11712,3.014573,-0.162871,-0.279966
3.251530362423723,0.5113657547008024,-0.098224727418975,-0.0003893988722742,-0.0001093493763482,0.0009841794072049,-5.505074481357555e-06,1.1256950870774588e-06,-1.2932212924169193e-05,11713,3.030655,-0.237791,-0.28288
3.06615572422239,0.5020216072195689,-0.2352126548232825,-0.0002203241614545,-0.0014177305698677,0.001813681907039,-5.441736350727779e-06,1.119949902116625e-06,-1.277825950296685e-05,11714,3.083694,-0.242018,-0.303632
2.8725975075021277,0.5233036680874315,-0.3423801892944683,-0.0001238283239833,-0.0019929802339884,0.0021568482412042,-5.388797040168396e-06,1.0621593810463415e-06,-1.2650017864064356e-05,11715,3.111836,-0.212389,-0.332723
2.651228738861667,0.5439326334809887,-0.4412257377280282,-9.048214643793192e-05,-0.0018615644080966,0.0020406588408236,-5.354528686769537e-06,9.254367948875938e-07,-1.2567657947757186e-05,11716,3.142963,-0.152463,-0.361907
2.4332792304196262,0.5460444428244613,-0.5403514598540229,-8.773436921380486e-05,-0.0012668103421575,0.0016207004850488,-5.2899855054380494e-06,6.888241815117155e-07,-1.23975163119542e-05,11717,3.210827,-0.029692,-0.406333
2.226850904940357,0.5616254549608052,-0.6294855541101274,-9.919815711619176e-05,-0.0003191589027053,0.000983272401171,-5.193413267942341e-06,3.791830995507493e-07,-1.2115235443050278e-05,11718,3.315895,0.141055,-0.445976
2.026156872005126,0.5798626258349704,-0.7201736774706445,-0.0001250569254516,0.0009884418830125,0.0001568055568967,-5.113105414515895e-06,7.57184865634098e-08,-1.185434480791573e-05,11719,3.469852,0.361118,-0.469571
1.8293292940043548,0.5694062592630832,-0.8228984449149039,-0.0001484566448003,0.0025004212235093,-0.0007252227073786,-5.050794553417796e-06,-1.1847758187720619e-07,-1.1666491454107144e-05,11720,3.617811,0.610103,-0.526164
1.638217874785186,0.5612699903663003,-0.921045214292177,-0.0001427972313017,0.0039518916549015,-0.001450111053401,-4.968413916303648e-06,-1.7077940660936954e-07,-1.1480790739682676e-05,11721,3.722962,0.878803,-0.621051
1.4382358571562806,0.5802281310793174,-0.99026277389933,-9.571870986160584e-05,0.0052498637816947,-0.0019273133454013,-4.848033641779558e-06,-1.9414182015608986e-07,-1.1240512763441503e-05,11722,3.757227,1.124807,-0.737533
1.2374599424138502,0.5938220617263542,-1.0276678903241456,-6.381735253896252e-06,0.0064558582247853,-0.0021795756036818,-4.693147116248461e-06,-3.233362534943993e-07,-1.094658467019153e-05,11723,3.731686,1.407957,-0.896512
1.0560857091435132,0.581361780854522,-1.0506087494693674,0.0001211751554025,0.0076865094791818,-0.0022628076559185,-4.522270017546535e-06,-5.103770456102633e-07,-1.0632699851665533e-05,11724,3.649542,1.722629,-1.101375
0.8794703767721993,0.5581011561400644,-1.067842266921216,0.0002712594175606,0.009199302629158,-0.0023276089066776,-4.3427203533639925e-06,-5.576280477241051e-07,-1.0299071879669355e-05,11725,3.542398,2.096675,-1.355968
0.6928183251602453,0.5409534827690801,-1.084733506671326,0.0004392167407653,0.0111498546287989,-0.0024542156016606,-4.11805339387406e-06,-3.590924448477907e-07,-9.87986487406344e-06,11726,3.425959,2.53587,-1.616177
0.5143105332230828,0.5217300693268593,-1.0897104124958852,0.0006317381044894,0.0135920854711295,-0.0026507620236789,-3.809663604733018e-06,3.6062805485070662e-09,-9.320323641710364e-06,11727,3.408262,3.089616,-1.981091
0.3613109689526719,0.4961830473082098,-1.0391716838852316,0.0008501218274252,0.0166772151418346,-0.0029905184480973,-3.3943348153579007e-06,4.005718867069836e-07,-8.56562327589804e-06,11728,3.296674,3.866524,-2.443687
0.2058933577794446,0.484013868982636,-0.9515424369244052,0.0010955701773837,0.0206080750505871,-0.0035797017087325,-2.789433187685065e-06,7.307901110521279e-07,-7.413548278490414e-06,11729,2.935205,4.96737,-2.93399
-0.0005657858738386,0.4563894339188741,-0.8745623309598992,0.0013655212233283,0.0253711974196286,-0.0045031012498284,-1.8053782287691327e-06,7.992562885180207e-07,-5.421010111901848e-06,11730,2.920702,6.495919,-3.272349
-0.2258086783363118,0.4192379350624011,-0.7436672516618174,0.0016510982421099,0.0307247658296247,-0.0058411805595349,-2.091799331989174e-07,2.933110754246468e-07,-1.9951806989195246e-06,11731,3.02818,8.620401,-3.385292
-0.406489674496728,0.466149357737364,-0.5485933833675,0.0019415839348707,0.0362641100323606,-0.0076807784625338,2.1504267216960667e-06,-9.07185343761184e-07,3.320803204834697e-06,11732,3.342831,11.653493,-3.324232
-0.6083080625531342,0.5508111583933113,-0.4116640490636297,0.0022217661734941,0.0413006618751973,-0.01010891963134,5.2979990994420895e-06,-2.492525646907793e-06,1.0664482960949646e-05,11733,4.010738,16.106937,-2.945502
-0.845048700305782,0.636406956764828,-0.3245919317706967,0.0024711328326856,0.0451930592259406,-0.0129944617983754,9.155129255061625e-06,-3.965696383430209e-06,1.9877554687063147e-05,11734,5.168756,22.352112,-2.018708
-0.9854451896457956,0.9551865558570358,-0.2203488264518203,0.0026623914451405,0.0473029055986266,-0.0159442695925437,1.346034493124206e-05,-4.865440310179766e-06,3.033460565997278e-05,11735,6.289143,30.393098,-1.015015
-1.0471414262168763,1.6006287251339024,-0.1538191073877408,0.0027569250661623,0.0466627101854561,-0.0183550532451841,1.7711708569852732e-05,-4.588471855406736e-06,4.073389486919905e-05,11736,5.671367,39.466449,-0.330983
-1.0553502009254978,2.289639437220158,-0.1658050674205712,0.0027011975776165,0.0419714543156885,-0.0192804793850628,2.1357765155046896e-05,-2.4546328741561177e-06,4.948668128319964e-05,11737,2.89555,48.599327,-1.951779
-1.0282320833627987,2.772412306264576,-0.2722669934717519,0.0024717364193079,0.0329926232147766,-0.0182860288591786,2.4029574988319107e-05,1.6141884557415755e-06,5.545775162926655e-05,11738,-2.846091,55.355065,-8.029615
-1.3685227791570385,2.897634953653649,-0.4533157407785443,0.0020776355619669,0.0206661144489288,-0.0154860707753607,2.5549494407206475e-05,6.630556015076516e-06,5.822341677972221e-05,11739,-10.075177,57.414778,-15.136156
-2.1400653196228805,2.47171556693233,-0.6033825476676971,0.0015380938960476,0.0064213526294576,-0.0110358362853357,2.58242069818312e-05,1.1069565836069596e-05,5.778131088703748e-05,11740,-16.287961,54.375138,-21.269256
-2.603335483744856,1.6283580051763122,-0.7465050121693103,0.0008988392311683,-0.0072495826704205,-0.0054026172389763,2.4854565323198108e-05,1.3697609528879533e-05,5.443457827471041e-05,11741,-18.817142,51.497068,-22.362708
-2.5164102284331817,0.7697828110607852,-0.976327122620828,0.0002788007036117,-0.019086732711764,0.0008639083251293,2.282842983721497e-05,1.3858169474230727e-05,4.893326254977858e-05,11742,-16.706009,48.220082,-19.470491
-2.329215587672313,0.0781393738199784,-1.1511829988584334,-0.0001117307197984,-0.0291657543251212,0.007101466336049,2.0015665389039054e-05,1.1681041438680707e-05,4.2098573321513056e-05,11743,-12.005094,43.841646,-13.893501
-2.1614121320567854,-0.3297579033222292,-1.1264293604881477,-0.0001028240792247,-0.037310258863826,0.0126746971541426,1.6560516923709072e-05,8.235445429705661e-06,3.422285098341038e-05,11744,-7.054789,38.277813,-8.04121
-2.3921722821869347,-0.3722052633915734,-1.0352000178179432,0.0004524224546559,-0.0437352581721323,0.0170127520063894,1.2564536904899046e-05,4.896435944672572e-06,2.5361110498545664e-05,11745,-2.974979,31.595871,-3.775021
-3.5760872985595813,-0.3142043863448919,-1.001652439412415,0.001564081767947,-0.048357199352788,0.0197743547318277,8.28912639723031e-06,2.438665467768401e-06,1.6021832429580126e-05,11746,-0.250815,24.390098,-1.781634
-4.864312614681744,-0.3346138219315144,-1.0041366051368523,0.0030507777822054,-0.0506521355727935,0.0209531159701197,4.0576653903949166e-06,8.987819792484216e-07,6.959639033954263e-06,11747,1.379502,17.052289,-1.15915
-5.213094907474318,-0.4162368721533437,-1.0290948600352183,0.0045617139632544,-0.0505085090302803,0.0208457014617747,2.9216025962768872e-08,1.880879321291798e-08,-1.4884696010297846e-06,11748,2.933583,9.873141,-1.017087
-5.187920258407141,-0.7774820902793843,-1.0394015288434422,0.0054779457789507,-0.0480637180138116,0.0202248326944131,-3.727484145493712e-06,-6.698286806495214e-07,-9.174724467063638e-06,11749,4.993127,3.349612,-0.977104
-5.263240440864927,-1.1559909435042746,-0.992749910282746,0.0055197423677793,-0.0434302975137683,0.0193676100114067,-7.012333027255863e-06,-1.9544285455334342e-06,-1.5512176352163883e-05,11750,7.422707,-2.271134,-1.372736
-5.043633111090954,-1.2059289882100763,-0.9120100912909356,0.00475991768069,-0.036838700771993,0.0180546583331979,-9.666969003904598e-06,-4.244259333503366e-06,-2.0058432727014205e-05,11751,9.767526,-7.711266,-2.114942
-4.957324662286547,-1.8207445120716308,-0.8381644718980306,0.0032409780246005,-0.0287232811934323,0.016223567337519,-1.1882351676228014e-05,-6.885645486729669e-06,-2.3456264503752455e-05,11752,10.804472,-12.366498,-2.080781
-5.432193189919677,-3.369392520559237,-0.7507634568078558,0.0011477289027914,-0.0197594877997154,0.013727993096302,-1.3848622982061192e-05,-8.905315680479213e-06,-2.6516451245674556e-05,11753,14.503936,-16.33141,-1.646054
-5.58222153378024,-4.504526895483754,-0.5781840007931658,-0.0013327886538364,-0.0105666108366237,0.0106208465944436,-1.52143522674066e-05,-1.0005625239631251e-05,-2.873306079674301e-05,11754,17.96556,-18.540262,-0.331147
-5.1538663598542325,-4.548253365587026,-0.3839090339268785,-0.0040205184779851,-0.0017523214856989,0.0072446958612159,-1.5429872731179937e-05,-1.0255462282491397e-05,-2.90395966946726e-05,11755,16.130866,-18.70592,2.073083
-4.682031644293997,-4.268291227849902,-0.2869069810381255,-0.0065053881042377,0.0058297536557318,0.0039487652425975,-1.4453854623993466e-05,-9.513195188992734e-06,-2.742945932224577e-05,11756,10.762528,-16.120653,4.630698
-3.494826882534116,-4.086702925608131,-0.1977675113660435,-0.0081364508248933,0.0110870290655473,0.0012125588619744,-1.2694371811122954e-05,-7.839673385976168e-06,-2.465631803232644e-05,11757,9.770925,-10.85175,5.869124
-1.304258894632211,-3.711058312455628,-0.0277821704933517,-0.0086739416876847,0.0136003121618273,-0.0007422224207774,-1.056124854576689e-05,-5.9267899404097895e-06,-2.119101839346712e-05,11758,9.568287,-5.573578,5.722808
0.6638396765016705,-2.7062633974283576,0.096367207026295,-0.0082961182443178,0.0136852645006926,-0.0020089536913172,-8.491752782236688e-06,-4.474210358280189e-06,-1.7597823112301165e-05,11759,7.196593,-1.805982,7.417031
2.1474807293726235,-0.9797595953137368,0.1149753524743186,-0.0072907339000404,0.0120273850374346,-0.0027291291406012,-7.073252251947641e-06,-3.4752311211572e-06,-1.5084821921576687e-05,11760,5.037325,0.118864,7.868464
3.645392668879525,0.4848364853266322,0.1249624615642478,-0.006270513886542,0.010059751219547,-0.0032417107144216,-6.598987408611218e-06,-2.5768066722157034e-06,-1.441456077840029e-05,11761,4.166605,0.21474,7.790141
4.508807046673736,0.8540104795170447,0.1148104910606018,-0.0054971559601984,0.0084340205970331,-0.0036915377221543,-6.6939780720510285e-06,-1.7708440452115967e-06,-1.4858189943527187e-05,11762,3.877791,0.251812,7.669998
4.356931771177811,0.7320263706659982,0.039107051941742,-0.0048478921302879,0.0069832261952888,-0.0040032121398501,-6.797348413632671e-06,-1.2416601342753837e-06,-1.5231650086954536e-05,11763,3.554767,0.384581,7.576785
4.029349500574737,0.7327289198095736,-0.007730435552023,-0.004320616169967,0.0058028754167297,-0.0042026300399417,-6.753797317356238e-06,-8.944472031013545e-07,-1.5242635370865156e-05,11764,3.166925,0.57991,7.405092
3.9041903580991417,0.7289902775464666,0.0205578574527506,-0.0038545436692072,0.0048598605334224,-0.0043170582665145,-6.68338093613773e-06,-4.77299713226267e-07,-1.5190117729689287e-05,11765,2.81564,0.736764,7.196699
3.727425903423697,0.6694020392776552,0.0520366319045123,-0.0034235371245906,0.0041665448411426,-0.0043589871551342,-6.633067311141819e-06,3.8499050961249876e-08,-1.5185155230658434e-05,11766,2.514126,0.863399,6.991299
3.5495833623552446,0.6569682509257369,0.0613335991548981,-0.0030840723326232,0.003875241457627,-0.004357484752262,-6.5875590805949695e-06,4.342976809271907e-07,-1.5174248752877536e-05,11767,2.288733,0.966112,6.826207
3.4111399863250726,0.6654820332588078,0.0756939845584777,-0.0027916988257832,0.0038887479460083,-0.0042916625220011,-6.604172553888445e-06,5.620116570950891e-07,-1.5246743771698428e-05,11768,2.171539,1.077032,6.739248
3.2485562298508666,0.6600721055059724,0.0961497506648594,-0.0024256351635784,0.0038935214085371,-0.0040885946017702,-6.734092797274795e-06,5.291694501085743e-07,-1.5507849872774544e-05,11769,2.078014,1.195046,6.639867
3.0999485228296884,0.6627928037406123,0.1150399432227223,-0.0019577653740848,0.0038381948958099,-0.0037451534692895,-6.896961811553207e-06,5.05573813894772e-07,-1.5820333536093426e-05,11770,1.999135,1.320089,6.498808
2.9485565561991818,0.6661051159226838,0.1347129295923113,-0.0014342434505071,0.0038960635452318,-0.0033228834425314,-6.969971699803655e-06,5.164974828282407e-07,-1.5945621964827552e-05,11771,1.946542,1.457376,6.352609
2.7923377370218816,0.666974306397572,0.1538718715289214,-0.0009114733676236,0.0042536094282414,-0.0028896854250314,-6.933442195826903e-06,4.96605611964196e-07,-1.5840063404400732e-05,11772,1.932434,1.615177,6.193168
2.6454540055726707,0.6742375246594132,0.1740479153840925,-0.0004979666336989,0.005232244752623,-0.0025534768466496,-6.821059811397798e-06,4.3115814014360923e-07,-1.5599151041245992e-05,11773,2.03416,1.810087,6.019609
2.4876534068076914,0.6630479678411756,0.1902677816154236,-0.0002255131065196,0.0069900842044897,-0.0023880744542266,-6.60054798224184e-06,3.7252779112477e-07,-1.5193077768421489e-05,11774,2.207589,2.076449,5.8444
2.338731476305362,0.6332822190443278,0.2022962986526994,-3.865306656155839e-05,0.0094968266009648,-0.0024288405846559,-6.245789613755658e-06,3.656488674786086e-07,-1.4546642435517452e-05,11775,2.334504,2.458669,5.611932
2.188258232272984,0.6407168992706002,0.2350909183259621,0.0001168380103054,0.0127645074269174,-0.0027365901034168,-5.82292235292847e-06,4.2571345770163626e-07,-1.3734168467067717e-05,11776,2.372845,3.004616,5.298949
2.034751568386269,0.7108303564635501,0.2875154548534421,0.000335057913,0.0167614184826636,-0.0033805919144949,-5.359310897543493e-06,5.533167082057764e-07,-1.2786488241584428e-05,11777,2.221807,3.792627,4.874572
1.898569792383236,0.7804266473830852,0.3459641231309132,0.0006529467043528,0.0214089470561638,-0.0044295171027637,-4.7286637526553375e-06,6.757264781166245e-07,-1.145291631803854e-05,11778,2.116516,4.959028,4.448624
1.7085855943260522,0.7948760073605732,0.4139903424799647,0.0010376102845588,0.026587683094688,-0.0059599064212761,-3.6791181006746567e-06,5.500903565445717e-07,-9.173080761831637e-06,11779,2.209437,6.607722,4.216069
1.573914881534923,0.8151227276088386,0.4754969408074804,0.0014628276789251,0.0320511332820622,-0.0080512617976794,-1.8971518184045448e-06,-1.3906480456345313e-07,-5.186555220605702e-06,11780,2.508965,8.979692,4.170248
1.5173999641733469,0.9062501598416411,0.6350312653895779,0.0018770657930635,0.037397373675065,-0.0107880687098673,8.939646846852512e-07,-1.4533321566259572e-06,1.1906004506365923e-06,11781,3.028918,12.496772,4.284654
0.9525577197412674,1.01003062944963,1.0981377795312794,0.0022452329065209,0.0420621497870478,-0.0140312397087514,4.787797371356553e-06,-3.0133018349685437e-06,1.022712694575029e-05,11782,3.848836,17.838902,4.652983
-0.1870852702792509,1.0959028138569868,1.6631861486530943,0.0025548996356315,0.0452435401704346,-0.0173729764236655,9.554951765524832e-06,-4.139710004058506e-06,2.1444944957553463e-05,11783,5.3937,25.634477,5.000715
-0.921528427295018,1.3368901393009145,1.821118196673446,0.0027677982899405,0.0457941590160152,-0.0201985429341876,1.4640129182830454e-05,-4.0233957807075535e-06,3.348354825610746e-05,11784,5.132513,34.929755,5.126811
-0.9136107022930932,1.8223717257530545,1.6679771457312795,0.0028284989085551,0.0421019668415247,-0.0215507286709649,1.932282720863421e-05,-1.911543193268838e-06,4.44147942101376e-05,11785,2.665679,44.822031,3.639708
-0.7690944236910401,2.220143579638343,1.5817279921701135,0.0027157824367001,0.0337416777220695,-0.0209528383913376,2.294023997692861e-05,2.372770691297959e-06,5.242980391670882e-05,11786,-2.786038,52.683275,-1.167288
-0.7606040263971049,2.258582930498983,1.2089572484222346,0.0024406887231042,0.0216076473810115,-0.0184406998580722,2.50946765558821e-05,7.987849806502769e-06,5.6537133792e-05,11787,-10.850468,56.2171,-8.419418
-1.014905966605283,2.1020077417213896,0.3082330394953724,0.0020304558167252,0.0071436075781802,-0.0140609602754661,2.573543770322237e-05,1.331741173122533e-05,5.680833006539895e-05,11788,-18.025803,53.850621,-17.218729
-1.6141384938427108,1.8096623104572296,-0.4197482613697215,0.0015461274030884,-0.0069927456507084,-0.0081236914907038,2.5068028199202997e-05,1.671722324146745e-05,5.405318270253972e-05,11789,-21.881555,50.43783,-19.469914
-1.989894894184319,1.2557895829306742,-0.5177387244892379,0.0010680377110597,-0.0194941561593826,-0.0011682958345858,2.338059244842571e-05,1.7275685497332824e-05,4.9258500696783495e-05,11790,-20.801527,47.509437,-17.170904
-1.905723614124013,0.571004437916947,-0.4005035758942194,0.0007054002489601,-0.0305009796688797,0.0059860326155701,2.0902609953068675e-05,1.5203471904346932e-05,4.314488013890862e-05,11791,-15.857035,43.87475,-11.911202
-1.7770143124389852,0.009236391477003,-0.3923771794364269,0.0005895687059427,-0.0397872004957602,0.0126418690360698,1.7775743288137323e-05,1.1635852863325452e-05,3.603485940825679e-05,11792,-10.456532,38.998143,-5.759655
-1.710441058212926,-0.3022490627585791,-0.3788945741649528,0.0008811375858224,-0.0474502469379493,0.0182124358709562,1.4124299114315589e-05,7.936329141199745e-06,2.805068666057502e-05,11793,-6.120529,32.969737,-1.205568
-1.97965992172875,-0.3996635445435726,-0.3535546879245772,0.0016082342462841,-0.0533491080579023,0.0222702684810715,1.0115890586059018e-05,4.971583706021554e-06,1.940733426607683e-05,11794,-3.050679,26.239096,0.675979
-2.813854451949203,-0.4630400168704476,-0.3562271032919469,0.0026427055929589,-0.0569350027872265,0.024684841016991,5.934810283632662e-06,2.906199747296587e-06,1.0482525075171775e-05,11795,-0.943549,19.105503,1.5334
-3.633512347620769,-0.6600850704396801,-0.3246567243713052,0.0037613221533893,-0.0580618613363889,0.0255694336610453,1.711774981991054e-06,1.4529148433967304e-06,1.6326870043473489e-06,11796,1.218687,11.972651,2.271432
-4.145218754295179,-1.0357126751132015,-0.3422190499284585,0.0045657051343226,-0.0568445538406253,0.0254240390720383,-2.493407400056216e-06,1.0308494020344607e-07,-6.916097527685873e-06,11797,3.527596,5.303702,2.786416
-4.445518828498489,-1.37043928690289,-0.3320837319612923,0.0048630614549643,-0.0533434913943737,0.0244243184817776,-6.606818817867726e-06,-1.7526756838814502e-06,-1.4877131045415367e-05,11798,5.830208,-0.81512,2.938584
-4.417628901100513,-1.329596700914812,-0.1605719000861163,0.004676812970654,-0.0477002907642512,0.0224329212495703,-1.0460813120532738e-05,-4.425210519996509e-06,-2.1831243263258924e-05,11799,8.1722,-6.886617,2.405386
-4.470872891182001,-1.0731203419466404,-0.2664303428785328,0.003991936415183,-0.0402522301794604,0.0195195573212517,-1.380577066843351e-05,-7.3991310133845315e-06,-2.7485366500006367e-05,11800,9.838019,-12.700277,2.247873
-4.982043246616154,-1.0777465982169123,-0.9046656033230936,0.0028594784900396,-0.0315526111393126,0.0158117520317692,-1.627411754306348e-05,-9.655707739647564e-06,-3.1552579214806325e-05,11801,12.76189,-17.311383,2.691889
-5.3148919208472725,-1.259105596320743,-1.3951309781771486,0.0013658348665515,-0.0221629383489519,0.0115248802721172,-1.7386059547640716e-05,-1.067509831596353e-05,-3.337185292724743e-05,11802,16.294959,-20.11194,2.738655
-4.96800859515256,-1.2369149925432803,-1.3162099826825324,-0.0003726064506477,-0.0127084794785907,0.0070459589046106,-1.683625550237931e-05,-1.0648127629693676e-05,-3.2324890523396375e-05,11803,15.680843,-19.331828,2.336606
-4.0628443608668725,-1.175380237986701,-1.1612994023133294,-0.0020907018540033,-0.0040868528082459,0.0028599435801584,-1.481893788195048e-05,-9.822437033882093e-06,-2.871732078063326e-05,11804,11.588574,-16.097935,2.643865
-2.450138607868717,-1.213302031453914,-1.0339233971842177,-0.0033501745112773,0.0025020040126637,-0.0003801740525218,-1.202150142742681e-05,-8.311541608690099e-06,-2.3834329053861645e-05,11805,9.405094,-11.875262,1.759296
-0.4538092706627156,-0.9613002291217608,-0.5165658120633922,-0.0039761926185098,0.0065429747519201,-0.0024009893882689,-9.269859807460332e-06,-6.5361920240553655e-06,-1.906684762934965e-05,11806,9.049417,-7.123677,2.71658
0.9934779332783727,-0.3938281461429671,0.1147147568578215,-0.0040611239607812,0.0082613366421911,-0.0033608055661791,-7.1329038908761856e-06,-5.116133944704173e-06,-1.5263051934889995e-05,11807,8.448852,-3.574752,2.83607
2.157653565252155,0.0294249699516019,0.3519856826375239,-0.0037392412431381,0.008175587195494,-0.0035585030424899,-5.838347113303784e-06,-4.116270096501887e-06,-1.2887908129309928e-05,11808,6.301936,-1.238417,4.113105
3.6402550539469343,0.1757090976245651,0.3025738319863946,-0.0033230865374111,0.0074755826842281,-0.0036482263397501,-5.366626249241223e-06,-3.0629201633777296e-06,-1.212432237395689e-05,11809,4.958605,-0.470842,4.154606
4.710322629103052,0.2643155177955498,0.2115825194761701,-0.0029508170415197,0.0067070076047209,-0.0038934843632617,-5.4669805930433305e-06,-1.842804754758764e-06,-1.2556040757576625e-05,11810,4.424222,-0.502835,4.13008
4.758462925037662,0.3370730899478406,0.1164715270826987,-0.0025657553067167,0.0057374436364901,-0.0041328687788183,-5.767871412427717e-06,-9.011236658994848e-07,-1.3345776524905956e-05,11811,4.213034,-0.487538,4.114007
4.398245305516085,0.2586523961583667,0.0469172928556409,-0.0022013659456162,0.0047396996139301,-0.0043255688201272,-6.021924729613003e-06,-4.770902779319433e-07,-1.3953609876252334e-05,11812,3.967539,-0.385361,4.10301
4.226971223221973,0.1208067513591479,0.0486221218905446,-0.0018928542331219,0.0038734866339103,-0.0043512576669325,-6.209647880589861e-06,-2.6143621987143e-07,-1.4409180836604269e-05,11813,3.714827,-0.228622,4.048142
4.073905088022863,0.1000666462503063,0.0683766353213793,-0.0016520327377177,0.0032410425180519,-0.0041748654103496,-6.391235044756637e-06,7.922483312214943e-08,-1.4876633035620362e-05,11814,3.461209,-0.096807,3.967482
3.8254036813443135,0.1668132492499483,0.0653402035405205,-0.0014932443426604,0.0029754390235839,-0.0039043546475939,-6.527450080937054e-06,4.797163536346245e-07,-1.5245341426540896e-05,11815,3.234038,-0.012871,3.876409
3.623430463200549,0.2160175898720986,0.0697021535973863,-0.0013779884653011,0.0030228421675632,-0.0035629012894855,-6.545845693112919e-06,7.093709199750738e-07,-1.533660503514368e-05,11816,3.091852,0.020004,3.776938
3.424999806891591,0.2119540046954205,0.0742796699980015,-0.0012070701292884,0.0031255010461689,-0.0031422206831954,-6.489687796064164e-06,7.170531373374572e-07,-1.5241200654809554e-05,11817,3.011073,0.02104,3.661976
3.218073462752522,0.1933181212532049,0.0761404527777388,-0.0009544832225628,0.0032654877733065,-0.0026713256595419,-6.451756361348121e-06,5.914901997743792e-07,-1.5164596040983245e-05,11818,3.001157,0.077228,3.574768
3.041185529787612,0.173777537607978,0.0852200396212337,-0.000662519974884,0.0036433296693527,-0.0021915134975483,-6.449621121469718e-06,4.1306076677715653e-07,-1.5149660423320232e-05,11819,3.048061,0.174837,3.469121
2.8661685228333265,0.1340571872733236,0.0925655623907708,-0.0003708723120307,0.0044475039595736,-0.0017640767524754,-6.447731544238263e-06,2.8675733078881225e-07,-1.512630134669272e-05,11820,3.142045,0.324525,3.323237
2.682295176339412,0.0831749570408411,0.1080731338081478,-0.0001517485029461,0.0059676055346528,-0.0014827624606559,-6.423492733655204e-06,3.5178626109587586e-07,-1.5064565039433957e-05,11821,3.183266,0.542736,3.150132
2.4798446131627587,0.0370689059633102,0.1359828865544506,-2.3906232452105414e-05,0.0083611820839027,-0.0014032505858391,-6.341385733450338e-06,6.569469437925216e-07,-1.490000920466755e-05,11822,3.175553,0.838863,2.942077
2.280071826451127,0.0292751104421501,0.1661686262843228,5.849555532292815e-05,0.0116250608697332,-0.00154382963428,-6.112400052845505e-06,1.0855911939123184e-06,-1.4427426651452504e-05,11823,3.052573,1.236556,2.665891
2.1215373955060066,0.0734589711712236,0.2362285259117348,0.000142388301209,0.0157862498604147,-0.0019270728354957,-5.663495949450197e-06,1.4257353340036954e-06,-1.3480733920955755e-05,11824,2.94879,1.867622,2.386571
1.9691142987713728,0.1161640106804647,0.3714866185314749,0.0003056344101291,0.0208297333055684,-0.0025612681909921,-4.946957483365839e-06,1.4809232226490429e-06,-1.1966279561948964e-05,11825,2.799503,2.94274,2.106253
1.776948918894806,0.1319926794652266,0.4415109089070743,0.0005804819228921,0.0266014383591799,-0.0035107347002218,-3.808093898474469e-06,1.1093453138575995e-06,-9.520756220351124e-06,11826,2.849852,4.576787,1.883449
1.5941557786822649,0.1675070783042072,0.4358130925566333,0.0009439344927352,0.0327919117385012,-0.0049084897310063,-1.9475964324967496e-06,2.0918735930498415e-07,-5.381438647276016e-06,11827,3.1644,6.84773,1.855728
1.4109335616816898,0.1529671382912853,0.6984795822385647,0.0013764133212472,0.0388831694613716,-0.0069180067284167,9.438860014986828e-07,-1.271048407238861e-06,1.2960185431023495e-06,11828,3.672588,10.036165,1.92213
1.187687622860366,0.0282577710281256,1.2890488342508002,0.0018362245358441,0.0440638255938743,-0.0097663628768299,4.9585800482053935e-06,-3.2344626265564768e-06,1.086877200891779e-05,11829,4.556745,14.991881,2.30801
0.9617944199608216,0.2457820253420588,1.7206417334969544,0.0022960114700515,0.0474479144238044,-0.0133407380233306,9.828913020296584e-06,-5.29761408437182e-06,2.2785297675861485e-05,11830,6.239308,22.524329,3.298787
0.7241513846656589,1.2257922142072732,1.7161150202988935,0.0027472775423931,0.0479920309068108,-0.0171286607298207,1.5024325829580092e-05,-6.682725302518603e-06,3.566334614220277e-05,11831,8.024366,32.569826,4.992525
0.6596034116848819,2.3630224551081245,1.512226895222498,0.0031598285907369,0.0447152111256553,-0.0203790546992818,1.9900380458158717e-05,-6.294983259814754e-06,4.759850246878648e-05,11832,7.514781,43.640846,6.165616
0.7238460913311895,2.873361357149826,1.4329801834352178,0.0034891255410463,0.0367201687178774,-0.0219024585992953,2.383042290786624e-05,-3.302792410305265e-06,5.668233381690914e-05,11833,3.121917,52.858564,4.312869
0.1038080147841338,2.853762548545028,1.3269450621921024,0.0037130074580523,0.0243894879892598,-0.0211304508835401,2.642036645608573e-05,2.0406613722456275e-06,6.180136504156832e-05,11834,-4.655761,57.169607,-0.50447
-1.3387178462081286,2.6544038616835013,0.6599322353422816,0.0038288158480894,0.009715587841374,-0.018166362861173,2.7591691521757585e-05,8.211296802894848e-06,6.29538307664107e-05,11835,-13.645456,54.918961,-11.958504
-2.3796279631906585,2.513657197247661,-0.4121852496579505,0.0038414894895193,-0.0055367912315267,-0.0131234445850517,2.743105092641854e-05,1.3183237215964849e-05,6.079431396814146e-05,11836,-19.938186,50.598742,-16.870403
-2.327768919568045,2.294235370982792,-1.0008769465014096,0.0037745210127396,-0.0193308969054962,-0.0064534205154148,2.6041358054956205e-05,1.5467170896073852e-05,5.607377948679879e-05,11837,-20.774505,46.441312,-16.975028
-2.015239817579225,1.1719594083269864,-0.9110485306781324,0.003674821976816,-0.030369637861568,0.0010888050499843,2.3543367392738385e-05,1.4681424116813e-05,4.942861619764998e-05,11838,-16.618041,41.83501,-12.871254
-2.323338305976378,-0.644225292059369,-0.7626958802990191,0.0036203422943639,-0.0384650021880714,0.0083807666466904,2.013638511744525e-05,1.1591796052202509e-05,4.13869778703144e-05,11839,-10.910011,36.67713,-7.016528
-3.114508525557884,-1.6053584397240162,-0.7681734474770762,0.0036667297527793,-0.0438141463264757,0.014619365941952,1.606934534405382e-05,7.5806776951504815e-06,3.235512097440404e-05,11840,-5.910586,30.560513,-2.051802
-3.8597517441758975,-1.5891060688715597,-0.7379928570306675,0.0038494596799247,-0.047557524901263,0.0193371553441658,1.1561289081589909e-05,3.8017098799569832e-06,2.264469948698471e-05,11841,-2.316548,23.630919,0.386198
-4.2086936026317545,-1.746177680989486,-0.6989241760410467,0.0041532403904227,-0.049899522308305,0.0221815729147385,6.751715244585013e-06,8.682418031255224e-07,1.2488397237000634e-05,11842,0.235354,16.49023,1.220925
-4.295989809717266,-2.109950596517477,-0.6799172017092843,0.0044879823706917,-0.0500557920540858,0.0231417321510859,1.708507088723167e-06,-1.1096372896764308e-06,2.040748335308539e-06,11843,2.624236,9.48132,2.046658
-4.531730093195135,-2.428168392408261,-0.6423007212678151,0.0046837945060865,-0.0477146816782748,0.0223368599453487,-3.462803542984258e-06,-2.69648100949728e-06,-8.362231148154983e-06,11844,5.099923,2.756186,3.253606
-4.838752287990806,-3.032753089085533,-0.6097431653793008,0.004451830888193,-0.0425880218956905,0.0201115980305209,-8.522430197344372e-06,-4.668282566623489e-06,-1.806478162678252e-05,11845,7.917876,-3.313834,3.640591
-4.932587083729574,-3.411107822162745,-0.578132663850749,0.0036865109685354,-0.0348000161311817,0.0167740481643202,-1.312311360478626e-05,-6.90555545560711e-06,-2.644668346385001e-05,11846,9.005848,-9.128588,3.530516
-4.92375221365095,-3.126551681887035,-0.5546818221372647,0.0024764910182674,-0.0251331614013499,0.0125965919126479,-1.6816476794053572e-05,-8.5591421458714e-06,-3.299806274933437e-05,11847,11.252607,-13.799792,3.411674
-4.9426755078366735,-3.1916339715256905,-0.536789433196313,0.0009298584453443,-0.0146371722597428,0.0080961540788332,-1.900948644935108e-05,-9.392599861036809e-06,-3.686334503826085e-05,11848,15.811998,-17.619117,2.650986
-4.794831418900983,-3.899783610879092,-0.5151247632323559,-0.0007297527468211,-0.0049168517816778,0.0040154550567228,-1.9227442047522085e-05,-9.761996277830018e-06,-3.717528850983254e-05,11849,16.202445,-18.310314,2.793817
-4.479256856766689,-4.233549802906131,-0.4992297039897503,-0.0023237359837482,0.0030091392709014,0.0007660335558753,-1.7618222579582498e-05,-9.45802107375846e-06,-3.424864958029643e-05,11850,10.659078,-15.138807,4.452774
-4.013140852477928,-4.021251818844648,-0.4296919881636687,-0.0037214009355504,0.0087571051280588,-0.0015660956841733,-1.4959011709210856e-05,-8.018994585856653e-06,-2.962372358445794e-05,11851,9.76205,-10.068746,5.323461
-2.7664829809360123,-3.38268024783165,-0.2911746842820122,-0.004746733057663,0.0120507228212117,-0.0029671837103628,-1.213915938386132e-05,-5.9028868339277135e-06,-2.483826868530353e-05,11852,9.295922,-4.971135,5.738392
-0.4386065137502651,-1.7087366260543546,-0.1931660881550475,-0.0052118069824143,0.013086019297353,-0.0036698885181594,-9.847637659087815e-06,-4.02177066457696e-06,-2.092930443206021e-05,11853,7.227789,-1.581051,6.403886
2.124197274763387,0.4602087839148969,-0.1818676194124522,-0.0050665871287688,0.0122593226405691,-0.0038054273706453,-8.534676794842305e-06,-2.535215554818432e-06,-1.871987053479086e-05,11854,5.092484,-0.167926,6.499943
3.806438405855906,1.501283702147476,-0.1871464384632808,-0.0044188206533142,0.0102703824259577,-0.0034115508755916,-8.237988006671582e-06,-1.1779675748742904e-06,-1.843240717940477e-05,11855,4.308677,-0.271384,6.34065
4.225094336700335,1.3834245168897752,-0.1739526243435378,-0.0035167964519625,0.0078583428535666,-0.0027821720176153,-8.491635292341022e-06,-1.459606728877438e-07,-1.918931680420945e-05,11856,4.048049,-0.493156,5.96384
3.942835177194208,1.2281370634191466,-0.1657353568396359,-0.0028351664098101,0.0058136700712876,-0.0024333098947641,-8.755405648524689e-06,3.150227473972188e-07,-1.985606812444251e-05,11857,3.917273,-0.558811,5.632233
3.708242339052473,1.2275664059455185,-0.1725173528519938,-0.002555698000175,0.0046225779762517,-0.0025690564953456,-8.861813021281194e-06,5.01061728977226e-07,-2.010984714916526e-05,11858,3.815731,-0.551885,5.341252
3.623561074731648,1.1483120838271628,-0.1892949985272693,-0.0025551846554249,0.0043447144368913,-0.0031023760404014,-8.862711362663935e-06,7.035165658045294e-07,-2.012708624612533e-05,11859,3.75373,-0.488441,5.128608
3.4758880605298765,1.0843765974269512,-0.1978791163336622,-0.002728265837867,0.0047165634052877,-0.0038953859815514,-8.766779986524421e-06,8.241224594538256e-07,-1.997068921116349e-05,11860,3.679188,-0.39835,4.906652
3.299836945220461,1.0435041368371123,-0.1834688369036531,-0.0028378349522077,0.0049127678399806,-0.0046040924789259,-8.612885335616648e-06,8.306492201500321e-07,-1.9728973102408563e-05,11861,3.558146,-0.328929,4.659157
3.1424622579046524,0.9942728913427727,-0.1625309852604896,-0.0027899833545929,0.0047200087940227,-0.0050961590162735,-8.497004084202134e-06,8.710155855204789e-07,-1.957864894790216e-05,11862,3.33017,-0.257413,4.330085
2.9668251415613582,0.9679666722188645,-0.1463160782357136,-0.0026687358391585,0.0045433930193419,-0.0054734432341258,-8.428614892495155e-06,9.957397789069154e-07,-1.951676352373597e-05,11863,3.069432,-0.166973,3.992424
2.8024080622123906,0.9289138237689778,-0.1281125954205134,-0.0024877173628953,0.0045993724473496,-0.0057445671768131,-8.33881742893428e-06,1.1879336522994238e-06,-1.941845141304089e-05,11864,2.855374,-0.046471,3.691174
2.6478854161627474,0.8721250669991392,-0.1100155339748374,-0.0022677024207549,0.005208908073889,-0.0059318609777457,-8.221070971549907e-06,1.4993844767311813e-06,-1.93061721004173e-05,11865,2.607827,0.096043,3.360701
2.4915277868913157,0.8296393384884919,-0.0910140441201668,-0.0020192903479739,0.0065489427260584,-0.0060554694806937,-8.102835264419927e-06,1.983616287142781e-06,-1.9248375974798687e-05,11866,2.379151,0.277205,3.024661
2.340209491463135,0.8042203504639738,-0.0533876987761866,-0.0017153750425757,0.0085593926436939,-0.0061008675190709,-7.883029978397891e-06,2.4997504326502663e-06,-1.9019800718020147e-05,11867,2.154682,0.532203,2.675152
2.194495191657003,0.7884449498299011,0.0312136786153224,-0.0013565657021551,0.0112640475158044,-0.0061061093253514,-7.395833787318786e-06,2.794306220880438e-06,-1.8234415335043724e-05,11868,1.980627,0.921435,2.322473
2.0408302890368457,0.7797330685219118,0.1552777760255847,-0.0009600123977856,0.0146771701881572,-0.0061548791788048,-6.626714380726728e-06,2.838469262814896e-06,-1.6809581556577595e-05,11869,1.794257,1.542777,1.974244
1.8923846130639617,0.7662617042874684,0.2463366913400446,-0.0005254871651092,0.0187909277001771,-0.0063221892476481,-5.634132012767539e-06,2.744473062938764e-06,-1.483538807980072e-05,11870,1.694845,2.53149,1.655141
1.761225827243747,0.7393995327335191,0.2801995580472797,-4.3097199001256416e-05,0.0236052238084409,-0.0066926110337838,-4.310556286883792e-06,2.41244094701835e-06,-1.2067135273019977e-05,11871,1.873678,4.018281,1.52807
1.5586941732170856,0.722811010690325,0.3043764085885586,0.0004996355312254,0.0290502418469269,-0.007391770308988,-2.382041013735625e-06,1.5498826942609396e-06,-7.89235882112544e-06,11872,2.375379,6.099972,1.59452
1.3811415125813502,0.7395218284555207,0.3066729989933556,0.0011242999807657,0.0349806176667064,-0.0085893122331974,4.470140833093711e-07,-3.465168627833683e-08,-1.6265968133175715e-06,11873,3.052522,8.856957,1.759746
1.2583030036656124,0.7992419577397856,0.3725674950515923,0.0018316609735205,0.0409189642865774,-0.0103228164901797,4.39108685444953e-06,-2.2320932896806137e-06,7.271534676273964e-06,11874,3.796783,12.703118,2.014749
0.6848071891427839,0.8916985643166555,0.7885702431985592,0.0025988212831147,0.0459635546392608,-0.0124831717636018,9.497517448337327e-06,-4.633941114303578e-06,1.9002447221116048e-05,11875,4.902409,18.464805,2.678402
-0.3694303466318322,1.1862069586087878,1.4058465880711106,0.0033953717495445,0.0488073949973761,-0.0148881933721207,1.55228870186738e-05,-6.529103767232852e-06,3.304051629063249e-05,11876,6.613894,26.535768,3.754533
-1.036366529842936,2.0436059829726934,1.6031868108825242,0.0041718190981701,0.0475254781256643,-0.0172079834739586,2.1815991472088285e-05,-6.848713394755423e-06,4.772232792407378e-05,11877,6.902663,36.27938,4.839996
-0.9924762379171804,3.2209510002260684,1.4820496795403637,0.0048670672935425,0.0414625241177024,-0.0190492160079752,2.7408801747194875e-05,-4.526654034417267e-06,6.050561387159259e-05,11878,4.955931,46.514959,4.057799
-0.831590280485632,3.85252813241332,1.43700701444054,0.0054037644362611,0.0313633990226823,-0.0199185809839423,3.141562386575677e-05,7.151780592461057e-07,6.909168519476961e-05,11879,-0.893222,54.278415,-1.391469
-0.9552198163558308,3.6878009368859153,0.8752266707648033,0.0056670750437443,0.0183887564192863,-0.0190627438859337,3.343808111809418e-05,7.903519062555255e-06,7.249220017240042e-05,11880,-10.012821,57.71089,-8.91658
-1.3184605077148135,3.302614493071731,-0.3683996465487664,0.0054957356798693,0.0048140924387397,-0.0154135282581185,3.35639575541577e-05,1.5060247342463885e-05,7.109977384631735e-05,11881,-18.490484,54.498658,-18.862455
-1.7143661011753752,3.026058231680815,-1.164269868335829,0.0048808271279407,-0.008106254224706,-0.0088362893803391,3.204881302625354e-05,1.9988750571008173e-05,6.59403806391638e-05,11882,-22.751065,50.168151,-22.311962
-1.828856909325604,2.423246389659555,-1.0833037535279595,0.0039847296375217,-0.0202126956493825,-0.0002366902548247,2.9133495347266088e-05,2.125196888140523e-05,5.8075688732448056e-05,11883,-21.754595,46.660163,-20.674891
-1.685741096727324,1.0473010117438943,-0.813511722169512,0.0030581898563917,-0.031036909852025,0.0090309622003935,2.505737245794577e-05,1.881384744301674e-05,4.84065876308245e-05,11884,-16.356977,42.814103,-15.197642
-1.6491749614707971,-0.5618886712601779,-0.662602329539191,0.0025269535943058,-0.0403624148093427,0.0166485383466507,2.0017464446579108e-05,1.3945653511977068e-05,3.744791370215469e-05,11885,-9.822773,37.790313,-8.367679
-2.002495384256253,-1.2750833608921797,-0.5718140566151203,0.0025515892178702,-0.0478680569899275,0.0216065598626679,1.4181010188747847e-05,8.42882120413128e-06,2.5423955301176093e-05,11886,-4.414906,31.38429,-2.81176
-2.865717785653346,-1.0901494564897176,-0.6312535516983591,0.0030020349352704,-0.0530274793600894,0.0243304341201671,7.883051283428871e-06,3.6522275752483273e-06,1.2879055849884387e-05,11887,-0.675577,24.215537,-0.010419
-3.8838589647443538,-1.238696748485134,-0.7102584903880219,0.0037302007725098,-0.0557479066670719,0.0251928406684637,1.64936638354534e-06,2.550417981576331e-07,8.026985672695037e-07,11888,1.797167,16.705799,0.871494
-4.438971341227468,-2.008248938164522,-0.6467615869881773,0.0044281896929206,-0.0563269493952797,0.0252086413091279,-4.0602154076424815e-06,-1.881306410496011e-06,-9.891483528823411e-06,11889,3.940816,9.218007,1.323455
-4.446701888410806,-2.4618148931620967,-0.6028743991475289,0.0048814612573836,-0.0547826709058264,0.0247280176616261,-8.923663362692799e-06,-3.530724266196096e-06,-1.8492839624241043e-05,11890,6.609435,2.132963,1.8522
-4.253861784458006,-2.349675502221805,-0.5902677465543199,0.0049824610988326,-0.0509549875928539,0.0232824827717973,-1.2613737247357584e-05,-5.563821689677472e-06,-2.429548586562092e-05,11891,9.686349,-4.046414,1.332843
-3.996595993041234,-2.1312676302118,-0.2674210752544874,0.004474725615958,-0.0448623193969141,0.0207737136528441,-1.4931078861315923e-05,-8.126721502448608e-06,-2.708508061835771e-05,11892,10.85451,-10.340791,1.092101
-3.664838261614413,-1.8200689507191463,0.3284391118032596,0.0029958874354201,-0.0366006026372616,0.0171179910541576,-1.6066966859995693e-05,-1.0461329828014928e-05,-2.7738863902957e-05,11893,14.713026,-15.289036,-0.160156
-3.392786776644442,-1.2755221082964523,0.4546684722248639,0.0005237137312431,-0.0265861594200201,0.0124482516487317,-1.635639553749234e-05,-1.1734277236330813e-05,-2.739952634566153e-05,11894,19.001963,-18.033602,-1.232351
-3.132664294666241,-0.8686876142559186,-0.1569312919401302,-0.0026045269756152,-0.0156718942879392,0.0072900661234347,-1.590512109563648e-05,-1.1778117770417006e-05,-2.639417353403265e-05,11895,19.795441,-17.529342,-1.80767
-2.766688737949892,-1.0077341944054643,-0.6682302827282455,-0.0058333439612118,-0.0050772442298396,0.0022598407153165,-1.4801993097728082e-05,-1.0791245479212474e-05,-2.478129095126495e-05,11896,16.105535,-15.142276,-0.454127
-2.2298679597728714,-1.4004945735223338,-0.4930062805880085,-0.0082006256263687,0.003402581858321,-0.00177406222749,-1.335191821140422e-05,-8.98021364165781e-06,-2.298629853916029e-05,11897,11.616042,-12.582309,0.924071
-1.0439064406375125,-1.4289303345476825,-0.0760563980808258,-0.009310970859303,0.0089290701008113,-0.0043824348935134,-1.1864478198642971e-05,-6.8049344024407e-06,-2.130191865027885e-05,11898,10.136131,-8.251049,1.69445
0.7800416939675408,-1.0044973260724914,0.1012004909560617,-0.0093786072574089,0.0117031596492819,-0.0056476384240859,-1.0505964610958704e-05,-4.916591763880272e-06,-1.9666236172088875e-05,11899,9.663453,-4.549965,1.426273
2.233978220732193,-0.546852692778498,0.0967242555217943,-0.0086179781668892,0.0120934986891363,-0.0057141575619598,-9.418106446124923e-06,-3.575253748022416e-06,-1.8205176436385375e-05,11900,7.477548,-1.788141,3.144915
2.9738998179243143,-0.3217021007040422,0.0730183295319845,-0.0075414302630959,0.011153133930218,-0.0050355399330099,-8.793872777935915e-06,-2.4736900814064323e-06,-1.7460227940427396e-05,11901,5.820144,-0.386632,3.495908
3.547199055868804,-0.2461725171920251,0.0408609285860855,-0.0063962275578026,0.0094203084377633,-0.0038738478626503,-8.684795293941176e-06,-1.343948155539529e-06,-1.7687937872392895e-05,11902,4.932673,-0.39655,3.583328
3.931089318050076,-0.2333138770207385,-0.0508382679472869,-0.0051103009348573,0.0068689644845297,-0.0022790892033099,-8.848119984807074e-06,-3.880908121471796e-07,-1.835522098985868e-05,11903,4.601833,-0.425825,3.635037
3.8508192709813134,-0.2534534260960417,-0.1511975687621968,-0.0038139217283083,0.0039688492022233,-0.0005717376768726,-8.970989877796414e-06,1.0795868688088384e-07,-1.87843260164609e-05,11904,4.465831,-0.371211,3.630246
3.66011831863524,-0.2524831095474166,-0.1765574733551658,-0.002702397907876,0.0014387988064508,0.000745305216207,-8.913057862967243e-06,1.634889384987216e-07,-1.8775013852186107e-05,11905,4.404459,-0.310272,3.631648
3.559236045235484,-0.241919495391671,-0.1624642563127388,-0.0018691690603402,-0.0003639962247855,0.0014415353176544,-8.710929633075528e-06,5.169480567493874e-09,-1.848423533104152e-05,11906,4.39045,-0.2386,3.609504
3.380319553116902,-0.2294623969882483,-0.1477225915853143,-0.0013550640898378,-0.0013524484406572,0.0015243713701051,-8.481761319888285e-06,-1.4943878302984806e-07,-1.8140967242483955e-05,11907,4.371113,-0.188313,3.578639
3.2036259549965207,-0.2037893820185706,-0.1308847645470447,-0.0011276248156023,-0.0015867550535275,0.0010824148963315,-8.306617377490458e-06,-1.937098794059692e-07,-1.7874957529957476e-05,11908,4.310504,-0.162737,3.515723
3.0603214901582105,-0.1859375375665413,-0.115559034311684,-0.0010388213870306,-0.001441979092573,0.0004189126986313,-8.21013888020417e-06,-9.148020969629937e-08,-1.7747839169212964e-05,11909,4.196093,-0.156853,3.421309
2.8827630375746645,-0.1720378969007097,-0.1006189018629016,-0.0010241038479682,-0.0009998727153977,-0.0003271463781332,-8.208605330111708e-06,1.7357628980861466e-07,-1.7829352067426043e-05,11910,4.117494,-0.126222,3.32267
2.714928563401074,-0.1532529818854675,-0.0865292102069356,-0.0010905796365702,-4.813261857691906e-05,-0.0011829264557704,-8.305855854784039e-06,5.852075196560778e-07,-1.8150753697105257e-05,11911,4.019078,-0.043199,3.185938
2.547366971908836,-0.136806121161907,-0.0704809093675119,-0.001177240896996,0.0014812873524494,-0.0020353690016649,-8.462682809755188e-06,1.052824224098369e-06,-1.8639708402116985e-05,11912,3.882753,0.115618,2.98624
2.3751070654388458,-0.1255239634493276,-0.0581493520401017,-0.0011895830247535,0.0036506008979938,-0.0027062325114272,-8.568451799089116e-06,1.3996920065412455e-06,-1.904931887077968e-05,11913,3.742911,0.360546,2.766051
2.209088633731682,-0.116519234444956,-0.0346006138232263,-0.0010853311370248,0.0065037192067113,-0.0031299551987482,-8.47770898224585e-06,1.493429212232274e-06,-1.9037909298942804e-05,11914,3.594768,0.7059,2.542714
2.0386678611811497,-0.118665280652156,0.0301391442974616,-0.0008635472804739,0.0100151857314274,-0.0033304402928257,-8.11634552257659e-06,1.340973491235394e-06,-1.8419203829828803e-05,11915,3.445383,1.23132,2.321238
1.866621602325087,-0.1232545571852487,0.1164771879766865,-0.0005457492643469,0.0141835778305361,-0.0033899818772683,-7.500044169331496e-06,1.0105914480639332e-06,-1.7218278913353503e-05,11916,3.499242,2.035862,2.085186
1.7020130212614168,-0.1100552233218156,0.1809400893641414,-0.0002009198175256,0.019010419110723,-0.0035034569783073,-6.650184719988209e-06,5.764020964604586e-07,-1.5499788716892482e-05,11917,3.446126,3.260793,1.764764
1.5185826089604375,-0.0984157858533921,0.178087430525301,0.0001470989317163,0.0243803707820265,-0.003801068966681,-5.537885571932151e-06,7.74760506559006e-08,-1.3226753739554973e-05,11918,3.51666,4.939411,1.573572
1.256482851459513,-0.0662053436166376,0.1552016675855788,0.0005200078864765,0.0300497889752274,-0.0043571697830931,-4.070467000129606e-06,-5.758936906470988e-07,-1.0180128546530898e-05,11919,3.815243,7.137781,1.53593
1.0463855331913794,-0.0374128314252935,0.3075628452119394,0.0009185355711253,0.0356576582471502,-0.005334246172544,-2.0848711118039965e-06,-1.5838270003689206e-06,-5.912363484131329e-06,11920,4.293072,10.077488,1.706464
0.928399470317391,-0.0310609945836028,0.6407528308729209,0.0013439131975901,0.0406585345172117,-0.0069577106285043,6.311657918752422e-07,-3.069596802533537e-06,1.5522261504690365e-07,11921,5.018988,14.096648,2.145021
0.5055338101522142,0.1614406150679235,0.8495037027321652,0.0017945953500764,0.0444551400920162,-0.0092119805198137,4.227058722332563e-06,-4.900929544784817e-06,8.395615679246672e-06,11922,6.441342,19.859854,3.030543
-0.255667282475998,0.5706412838100295,0.8248253407067139,0.0022588073455899,0.0463501570469075,-0.0118198134884859,8.6280681135217e-06,-6.623138857871412e-06,1.8582607758433816e-05,11923,8.263103,27.773396,4.618316
-0.75511031589738,1.0852605413146217,0.758931503868032,0.0027302366542758,0.0453587055743827,-0.0143382921903123,1.3475385019885124e-05,-7.439063009359038e-06,2.9722187174257672e-05,11924,9.273726,37.598384,6.397796
-0.7598343028740213,1.851660358189768,0.7029666297229177,0.0032050049597235,0.0401554153246758,-0.0160228125864193,1.816007833454163e-05,-6.4552419534681175e-06,4.0155884148263e-05,11925,7.483129,47.877169,6.741806
-0.6436247437629943,2.7122632252979084,0.6646774284446867,0.0036654160397074,0.030522054090238,-0.0164158743956807,2.1952339250025603e-05,-3.3183152980319546e-06,4.805074510052078e-05,11926,2.48614,55.792675,2.607692
-0.8374795662435512,3.1188098083044267,0.6435334871846146,0.0040795862814845,0.0174817995596775,-0.015351140137574,2.426570839013383e-05,1.3907004390663825e-06,5.215559697424791e-05,11927,-5.78949,58.963747,-5.141268
-1.539948009755437,2.8847468917439483,0.3397277133818606,0.0044039434574894,0.0026392293344861,-0.012540718380638,2.483085887265873e-05,6.398668668466262e-06,5.216792922511499e-05,11928,-14.891018,55.742529,-14.837017
-2.3692034783897347,2.306085633813497,-0.2571603274623145,0.0045756895170327,-0.0112029584742146,-0.0077159918368873,2.36572434249587e-05,1.028898648573107e-05,4.854012392451045e-05,11929,-20.160795,51.977837,-18.647563
-2.633781652731935,1.4862160253140346,-0.61170404256771,0.0046101228460496,-0.0227082775641414,-0.0012178339345769,2.0991978650082027e-05,1.2088597027005836e-05,4.222994800880078e-05,11930,-20.047107,48.338687,-18.073341
-2.4362620702558964,0.2327323382874159,-0.5611934756914692,0.004612679356908,-0.0321225073762563,0.0059179520632014,1.7354807823747935e-05,1.1690421175208274e-05,3.456999174250751e-05,11931,-15.798368,44.041498,-13.761622
-2.3244516250139906,-1.03055199214112,-0.4627139278342599,0.0047384868174267,-0.0394796215835277,0.0127155053832003,1.3434387003578629e-05,9.847098739379622e-06,2.6903695307972205e-05,11932,-10.562621,38.958282,-8.149497
-2.4146202782780493,-1.545706231376438,-0.4583556283430067,0.0052375626320365,-0.0453660688170996,0.0180393577019363,9.809818205685773e-06,7.640989188626411e-06,2.008710141533478e-05,11933,-5.949458,32.624675,-3.695321
-2.903052555211945,-1.4298009878285551,-0.4313499406404017,0.0061337079393812,-0.0498466245190985,0.0212899953988381,6.794750197165709e-06,5.803355731552393e-06,1.4428074030698075e-05,11934,-2.605482,25.458391,-1.733609
-3.737969218573443,-1.3303585480456368,-0.3922498783648492,0.0071943617146984,-0.0522891522749399,0.0225962668216158,4.41174287124311e-06,4.570908210479619e-06,9.769667407027389e-06,11935,-0.176134,18.018594,-1.195518
-4.327758527031013,-1.4421599362647943,-0.3888451766051373,0.0080977660263713,-0.0524896883335151,0.0224219656886793,2.3542932218090286e-06,3.846821286884336e-06,5.423090839884968e-06,11936,2.26882,10.623998,-0.785521
-4.723638970950569,-1.770243802305936,-0.3691034685021417,0.0083060407705859,-0.0503877053425978,0.0219358529396828,1.896027486249849e-07,3.0231478849331118e-06,7.055833376801787e-07,11937,5.027336,3.602252,-0.681663
-5.243376871369196,-2.343432858562326,-0.2915893107875502,0.0075995404720678,-0.045974369979924,0.0214877226207126,-2.2689232238240763e-06,1.2070273114415364e-06,-4.315194719179692e-06,11938,7.857215,-2.610874,-1.197799
-5.472725853814842,-2.677856961011411,-0.1068228022709132,0.0061133514319215,-0.0394573161488833,0.0205566195437572,-4.925808985917182e-06,-1.7376991169533886e-06,-9.184278233592164e-06,11939,10.197053,-8.673011,-1.936965
-5.151395213078262,-2.48503544487327,0.1738800461464005,0.0039885308895762,-0.0311529600142151,0.0188247683403024,-7.57046027397488e-06,-4.851106046542319e-06,-1.3717016083460928e-05,11940,11.632039,-14.248228,-1.063054
-4.675995526006775,-2.2362271776232165,0.3196139060490253,0.0015430210528172,-0.0215631838413587,0.0157664702303362,-9.81352774882921e-06,-7.093404289991995e-06,-1.7569514735103808e-05,11941,17.676911,-18.117676,-0.655958
-4.354874420438056,-2.113686589179124,0.1704623451102335,-0.0010079149549339,-0.0112950415111614,0.011344501335033,-1.108508825428337e-05,-8.175012234548829e-06,-1.982675339641708e-05,11942,19.46382,-19.258152,0.61239
-4.08309573508029,-1.934047327655208,-0.0442098882277874,-0.0035717950393679,-0.0011052824044604,0.0061792647017893,-1.1071312744984996e-05,-8.156572774023512e-06,-1.9930094711855445e-05,11943,14.749922,-17.234045,2.660534
-3.367909284606766,-1.806703299032324,-0.0650909239525986,-0.0059040535509908,0.0078987111428368,0.0009701622527278,-1.0035406736659267e-05,-6.997637514926018e-06,-1.845072044012146e-05,11944,11.111471,-13.619064,3.798789
-1.777182236772056,-1.7154939037873065,0.0070293470246759,-0.0076601825047223,0.0141790801692449,-0.0032090010939647,-8.491947370157837e-06,-5.106329792874914e-06,-1.625491968795487e-05,11945,10.726382,-8.558185,4.914178
0.3653906050349657,-1.2456010809680986,0.01205940849517,-0.0086749377205392,0.0171297177714116,-0.0058583238600125,-6.861540377881076e-06,-3.476383575256859e-06,-1.379202215225183e-05,11946,10.094423,-4.691405,4.828173
2.446178318448447,-0.3321364450874663,-0.0003689849019795,-0.0089491327964063,0.0171549029579139,-0.0071537978433439,-5.568124496544659e-06,-2.600276529515564e-06,-1.1693696636240596e-05,11947,7.685958,-1.794882,6.282648
4.064646006057609,0.4424878927580907,0.0102741777456,-0.0085609343332324,0.015021801684774,-0.0072720654832055,-4.976596140826191e-06,-2.0482246037428065e-06,-1.0827836221010649e-05,11948,5.656554,-0.424823,6.495213
4.785273525444147,0.7172062173367522,-0.0087964177660486,-0.0077580104186295,0.0123728100465011,-0.0067094454359217,-5.047830450624794e-06,-1.4076770901390868e-06,-1.1276730834645504e-05,11949,4.75597,-0.542789,6.492785
4.6541779289933,0.7510245979738279,-0.1071219468359953,-0.006686558248727,0.0099533853741879,-0.0057380010580074,-5.398919865141216e-06,-8.510678290124917e-07,-1.2233405769443456e-05,11950,4.407296,-0.60384,6.416856
4.336834648403015,0.7485841037592499,-0.2496724687684403,-0.0053988074254034,0.0075490065866026,-0.0043560125277908,-5.72353758423176e-06,-6.125140949279981e-07,-1.3009825616945172e-05,11951,4.24026,-0.592711,6.392789
4.136305807465206,0.68009924328013,-0.3130487896235188,-0.0040807760501749,0.0052949095420614,-0.0028399533026931,-5.933853727508957e-06,-5.388267245707278e-07,-1.3463969157311229e-05,11952,4.153271,-0.46956,6.390897
3.952117767298756,0.619550392118076,-0.28241434728201,-0.0030105742710913,0.0032245826153042,-0.0016324352441533,-6.0591054603615866e-06,-3.9806581599089866e-07,-1.3726684778798189e-05,11953,4.047643,-0.328213,6.377066
3.792447867326945,0.6085527114232627,-0.251411866851357,-0.0023208807843989,0.00144524968898,-0.0009342596424067,-6.179051021672984e-06,-2.0626573769205935e-07,-1.398760059673676e-05,11954,3.91708,-0.192564,6.342517
3.648538419670356,0.5975376289157962,-0.2382165639606424,-0.0020126549218656,0.0002684723155997,-0.0007497517526981,-6.327533483669638e-06,-7.23564935996271e-08,-1.43029720554895e-05,11955,3.691993,-0.085455,6.223259
3.472577456692394,0.5847820825602299,-0.218622875942804,-0.0020404163873859,-0.0002081534713528,-0.0010024615057763,-6.43732300631683e-06,2.089079045141018e-09,-1.4530420138427176e-05,11956,3.469664,0.011577,6.095679
3.2839919730419918,0.565873415723474,-0.2017622962582105,-0.0022394561472966,-4.219686002243824e-05,-0.0014204089129148,-6.4439040112434e-06,8.122475495571698e-08,-1.456869177935636e-05,11957,3.269432,0.13717,5.949815
3.0990246978292566,0.5377354074952656,-0.1873451811903239,-0.0025235370841885,0.000794442436214,-0.0018916387887806,-6.401970368371028e-06,1.9152351795521106e-07,-1.456196983007247e-05,11958,3.056365,0.276645,5.768057
2.914035490955133,0.51320763786135,-0.1614761885172164,-0.0028833296901632,0.0023510310877716,-0.0024648559790665,-6.401598947644735e-06,3.112240695787563e-07,-1.468720647998646e-05,11959,2.865104,0.44965,5.56965
2.723285504956351,0.4920873755272648,-0.1298602565651167,-0.0032196137891748,0.0046028804420145,-0.0030741799604374,-6.4082136478086056e-06,4.31199231073955e-07,-1.4837952962902336e-05,11960,2.675411,0.683196,5.346867
2.536176218459036,0.4706667215826223,-0.0913413624136967,-0.0033772964165929,0.0074716715209029,-0.0036129967113469,-6.315040222897761e-06,5.832713793140475e-07,-1.4769202529183384e-05,11961,2.483807,1.017739,5.087359
2.362148163850396,0.4478661631211814,-0.0490658019042212,-0.0032891018114486,0.0109451502710194,-0.004051227742442,-6.0281989553763984e-06,7.494952743556809e-07,-1.4273039888324466e-05,11962,2.28097,1.49581,4.795804
2.188368926124253,0.4289190709468243,-0.0163513348719539,-0.0029640512896115,0.0150708452742988,-0.0044132736169603,-5.453496345168322e-06,8.194172670926605e-07,-1.3137105063282504e-05,11963,1.886917,2.229665,4.446609
2.0090778231334427,0.4338068716576316,0.0347191786511239,-0.002442084180281,0.0199005771235671,-0.0047752535160614,-4.563080132858485e-06,7.47820989902234e-07,-1.1312308649266304e-05,11964,1.667375,3.33303,4.008198
1.8150429642018648,0.4512310559770262,0.0983425440430189,-0.0018372687390746,0.0255234053329794,-0.0053008326511432,-3.386740117228232e-06,5.380767721528386e-07,-8.875978492180746e-06,11965,1.599317,4.825007,3.711955
1.590156718370497,0.4452854951798153,0.1600431971031759,-0.001211784990973,0.0317074524367064,-0.0061075022673014,-1.8582138966705808e-06,-7.380749660160558e-10,-5.608966053870552e-06,11966,1.795212,6.805063,3.578029
1.3571744395278902,0.4628324628086755,0.3911808558016517,-0.0005771509855939,0.0378376220741936,-0.0072766361653557,2.2639298006694346e-07,-1.098259277633513e-06,-9.319941907159564e-07,11967,2.205525,9.466183,3.596696
1.161885358868747,0.4573184692463122,0.8819142103708274,3.0739932817779297e-06,0.0430479164533181,-0.008959658679754,3.078155323413073e-06,-2.586368613258194e-06,5.66085197252861e-06,11968,2.744145,13.481717,3.897371
1.02159920825095,0.341021463435032,1.2915725184908635,0.000436103417893,0.0460307150892516,-0.0113614755108363,6.763576598719132e-06,-3.9394411822790106e-06,1.424994256877525e-05,11969,3.816347,19.569268,4.392071
0.8871544086604685,0.588423341707579,1.3366015263769189,0.0006823415072367,0.0460450027993833,-0.0143113103214014,1.112496027601192e-05,-4.663817119139349e-06,2.439371549116945e-05,11970,5.073421,27.659537,4.382832
0.7435215890711474,1.728837638944035,1.202178035129322,0.0007492192297036,0.0429527380085658,-0.0172087001827478,1.5684064423032705e-05,-4.244709437250701e-06,3.4874984314745954e-05,11971,3.420191,36.519575,3.914848
0.663604105350365,3.096664217792884,1.092750849881714,0.0006690106898878,0.0366176769941186,-0.019150910066294,1.968713235346372e-05,-1.968063206384878e-06,4.375127508154146e-05,11972,-0.521157,45.493539,1.60043
0.4460123136710221,3.575764445717237,1.0218765429463734,0.000525527722463,0.0272092603393791,-0.0187132017742031,2.254208878337689e-05,2.332865544909332e-06,4.950244632640353e-05,11973,-7.162916,51.800829,-4.157806
-0.2984171258048721,3.3103325912696526,0.9570344194051834,0.0003771416990127,0.01541330070358,-0.0154102332349979,2.4110670098056787e-05,7.498458048302303e-06,5.190997658781788e-05,11974,-15.014337,52.76438,-11.630962
-1.2720684781953695,3.033352920113642,0.7419295340385585,0.0002606808627267,0.0025417789082264,-0.0097897076641755,2.442864738514759e-05,1.1756807510364152e-05,5.1371834613224486e-05,11975,-21.07206,49.843983,-18.543609
-1.6998763061616038,2.41241136298014,0.345801691002532,0.0002581351905238,-0.0102517694376129,-0.0026093114537892,2.3481164732900065e-05,1.3907497350807572e-05,4.8169540115494246e-05,11976,-23.273974,47.154816,-19.530275
-1.6248823963853436,0.9090599163081292,0.0662665242359763,0.0004873520998932,-0.0218586637840594,0.0046524729558303,2.1370673926511185e-05,1.3592758766335886e-05,4.2759199435707046e-05,11977,-20.085344,44.453938,-15.960674
-1.541335719472879,-0.7097897301789154,0.0435244985503026,0.0010206473449025,-0.0314422272644347,0.0110981055472323,1.8348772349949893e-05,1.1186950621292485e-05,3.584022852220268e-05,11978,-14.302262,40.909573,-9.831616
-1.4289561403892912,-1.3669560523360968,0.0647938746400161,0.0018900666537363,-0.0386451221446315,0.0164622209929112,1.4603432769838932e-05,7.740835602585142e-06,2.781378900167401e-05,11979,-8.743472,35.842527,-3.783886
-1.6794339641271132,-1.2393939772134828,-0.0072407151521024,0.0030213150862343,-0.043518517673375,0.0205023951943842,1.030708507212934e-05,4.482174403259189e-06,1.889656238157782e-05,11980,-4.567513,29.310191,-0.186715
-2.8269357467285574,-1.1568510547358646,-0.1379435960469614,0.0041911110647538,-0.0467845373420573,0.0233822724188588,5.820227042649128e-06,2.0603375355974084e-06,9.73404727424465e-06,11981,-1.677781,22.159727,0.617881
-4.118042235383253,-1.2305849534169413,-0.226367978815727,0.00520427380738,-0.0485295046804434,0.0251487933619488,1.5347456241941245e-06,4.297291324844065e-07,1.1626320798255203e-06,11982,0.654419,14.908064,0.803781
-4.72356581698904,-1.3248485823771972,-0.2088208931778374,0.0058551076503023,-0.0482209333235151,0.0257566330989732,-2.342394812058063e-06,-8.145710565392022e-07,-6.300501026755723e-06,11983,3.4267,7.735792,0.970898
-4.678083631785293,-1.9360486483999173,-0.2539902579476175,0.0058416773578291,-0.0456416507908102,0.0252955640188674,-5.685957854174057e-06,-2.280576673264367e-06,-1.2294673903509064e-05,11984,6.415987,1.188802,0.866626
-4.381933039702994,-2.9333406223849376,-0.2903788747656808,0.004772379157021,-0.0405991920648885,0.0239019473444797,-8.40457210029661e-06,-4.3406384191289e-06,-1.6645956744324638e-05,11985,9.901517,-4.52308,-0.326218
-4.792807964069305,-2.951314734558693,-0.1617333079531777,0.002564450008083,-0.0332447283087907,0.0217113342870852,-1.0538404404687868e-05,-6.539954357770126e-06,-1.9706869871712856e-05,11986,11.103093,-9.956287,-0.51399
-6.062514290870503,-1.8596872759499024,-0.4355204795749255,-0.0005174605163727,-0.0242472113838574,0.0188761489128592,-1.2129572164907943e-05,-8.026707687277424e-06,-2.19465320202278e-05,11987,15.43814,-13.804043,-0.718831
-6.781434290152612,-1.3621403462098347,-1.3227220718521169,-0.00401019259302,-0.0145358258455427,0.0155345592602647,-1.3011753473448144e-05,-8.50883188930327e-06,-2.3252250119882617e-05,11988,17.495857,-16.58122,0.251909
-6.441239248416717,-1.8935022059917304,-1.9680368945426927,-0.0070725313656066,-0.0055327793917025,0.011800256236368,-1.2992274935657667e-05,-8.161902973315928e-06,-2.326980804137384e-05,11989,15.588095,-16.264456,1.866686
-5.378784266587206,-2.28764539323454,-1.897014565903436,-0.0093069831655163,0.0019300337322097,0.0078842510695208,-1.2172499414431184e-05,-7.028242593571926e-06,-2.215679131207721e-05,11990,10.821262,-13.0965,4.216991
-2.9797201493888634,-2.161623151927752,-1.4370405643993531,-0.0107843635645374,0.0076579855654303,0.004100805188585,-1.0873344573856895e-05,-5.257391212731132e-06,-2.039081471695612e-05,11991,9.644316,-8.378013,5.163668
0.1449303634527599,-1.6406007767338244,-0.8749176071247581,-0.0114914296691414,0.0113577874497578,0.0008140961382323,-9.44403916787736e-06,-3.4602648741537543e-06,-1.83596984974007e-05,11992,9.094971,-3.842476,5.101194
1.971961075604889,-0.6881456125127781,-0.4681375971911405,-0.0115568536936005,0.0129462621231675,-0.0015128464144516,-8.247160518665433e-06,-2.190886037679586e-06,-1.655648297816199e-05,11993,6.466242,-0.83892,6.729256
2.6692494001517098,0.1281667085949436,-0.4290411735009877,-0.0110689618317366,0.0126464371694468,-0.0026937937860722,-7.553409944076269e-06,-1.3861589116522307e-06,-1.554338584920396e-05,11994,4.939066,0.549846,6.725404
3.422741336475222,0.3412911477760509,-0.4819752991636244,-0.0100400197836898,0.0110182747676342,-0.0028614814806729,-7.355352189781216e-06,-6.993130774019158e-07,-1.5422984040993726e-05,11995,4.150557,0.408408,6.683491
3.817081191086474,0.3709483935107663,-0.4265791719578286,-0.0086912876901999,0.0087264421985656,-0.0022841227633841,-7.389450457066074e-06,-1.225437372256965e-07,-1.569173727475612e-05,11996,3.942299,0.286167,6.552232
3.5756314654924157,0.5077337507446558,-0.4213744667451314,-0.0074346306264743,0.0066267818575886,-0.0015245276749521,-7.389694965334774e-06,1.1442588483449953e-07,-1.5795375802968545e-05,11997,3.804842,0.278912,6.44796
3.316093007456013,0.5838213645982628,-0.4287247812121609,-0.0064476890826426,0.0051927563903022,-0.0008373183669762,-7.280039431303268e-06,3.0720739274712353e-09,-1.5602492432391397e-05,11998,3.791296,0.384613,6.380566
3.198532795259176,0.5912496951741615,-0.3935633645658044,-0.0056981994639007,0.0044258297928622,-0.0001495651090114,-7.113273879846009e-06,-2.4064831496765584e-07,-1.5253713997099584e-05,11999,3.81046,0.534477,6.355973
3.062783763376215,0.5772954097403121,-0.3813517912312094,-0.0051439170708643,0.0041476100316476,0.0005038878048586,-6.952303205069837e-06,-3.959828099089942e-07,-1.4902866202499783e-05,12000,3.825007,0.720296,6.325687
2.926504453400489,0.5437065038884532,-0.37239126834297,-0.0046203505205635,0.003749826140977,0.0011358814570335,-6.845427318383457e-06,-3.592136932686572e-07,-1.4674836103767508e-05,12001,3.81792,0.933242,6.286883
2.7754726096505404,0.5289456902064831,-0.3492064008490373,-0.0040915218562475,0.0031040137446633,0.0017157025469487,-6.815449918582389e-06,-1.8372818456025133e-07,-1.4627991587868883e-05,12002,3.758128,1.133889,6.235296
2.611158146295057,0.5161363698753039,-0.3133159290092783,-0.0036695864062776,0.0025918161809612,0.0021249425532166,-6.84038272218392e-06,4.6056289893547366e-08,-1.472841546112238e-05,12003,3.626303,1.35894,6.128101
2.4722810161777304,0.5037330518779973,-0.2726595531277962,-0.0034077203537183,0.0024402118327835,0.0023163521090959,-6.861027405381801e-06,3.007521911223309e-07,-1.487736969304126e-05,12004,3.457415,1.599505,5.964982
2.323559163182724,0.4845218689369959,-0.2365618561666697,-0.0033662525316175,0.0029582429087047,0.0022845993874442,-6.81537156334904e-06,5.262004413069484e-07,-1.494331546103006e-05,12005,3.254527,1.832292,5.70341
2.1594118716983983,0.4474317645503537,-0.2022142914127864,-0.0035514465376081,0.0042980340044806,0.0020314998716941,-6.678773260884004e-06,6.842182386336019e-07,-1.48283135618997e-05,12006,3.041192,2.081492,5.381044
2.00527754068993,0.4073953876871807,-0.1702911359273176,-0.0038836648199784,0.0063689391975691,0.0015947221626667,-6.460467428866379e-06,8.421633802907806e-07,-1.4511758492227557e-05,12007,2.85489,2.393279,5.023511
1.8622625642096504,0.3176457393486432,-0.126114550211995,-0.0042638593026244,0.0091080158025445,0.0010558965946263,-6.156475870506131e-06,1.0695653236155134e-06,-1.4002205697371328e-05,12008,2.519275,2.845014,4.619636
1.724899461761059,0.1728366584148387,-0.0703980869080155,-0.0045367337560832,0.012378941464151,0.0005547541754416,-5.744853440162643e-06,1.3237290683237734e-06,-1.327580875029492e-05,12009,2.280851,3.489273,4.262058
1.582419653577452,0.0776078276964904,-0.0127312209550814,-0.004628209151679,0.0161175607208765,0.0001395243603664,-5.2133491505204165e-06,1.475415236789333e-06,-1.2266937462003896e-05,12010,2.175508,4.407631,3.979262
1.4254914438057391,0.0996195865589925,0.0333618333673228,-0.0045578117983139,0.0203616201875793,-0.0002391397937787,-4.526509563604391e-06,1.4131383650709803e-06,-1.0868641462241782e-05,12011,2.143194,5.683304,3.737493
1.2426504320912324,0.1313198735342745,0.0665383217013151,-0.0043427963881233,0.0250924333197036,-0.000643887938863,-3.576581216678522e-06,1.0865119901934657e-06,-8.86257103489922e-06,12012,2.268292,7.369713,3.58219
1.0752097009460613,0.1125251248035427,0.1337004343312948,-0.0040428042553065,0.0302772703427549,-0.0011996169181591,-2.2048683811348195e-06,4.263175102466438e-07,-5.856409824352948e-06,12013,2.537305,9.56622,3.626489
0.9537220109378388,0.1829753472202908,0.1866196124348353,-0.0036768165783124,0.0356153560215868,-0.0019798724731966,-2.812464589617777e-07,-6.045686147947694e-07,-1.4604860372747026e-06,12014,2.943364,12.475361,3.881694
0.7480930316488454,0.2315674727669149,0.215256022584319,-0.0032138228439393,0.0404633792757244,-0.0030010242757121,2.2449637717544646e-06,-1.8853102523199624e-06,4.484471497220759e-06,12015,3.663473,16.64617,4.444197
0.4429196526567466,0.2512618200107351,0.435440067014054,-0.0026502365476935,0.0439228087509516,-0.0043210084456129,5.39317182714832e-06,-3.2017609654112457e-06,1.1996276219354032e-05,12016,4.960946,22.605938,5.356463
0.2431975909330637,0.8639555793651128,0.8265551913323248,-0.0019884059998399,0.0446719660943301,-0.0060141655520526,9.115922237772311e-06,-4.192952626041969e-06,2.0887906964912934e-05,12017,6.289759,30.482325,6.23889
0.1542313636720014,2.024631849441435,1.0630033484908967,-0.0012643018594431,0.0420522718647155,-0.0078854018155436,1.310461418237728e-05,-4.189340551350661e-06,3.029055383778217e-05,12018,5.583113,39.478711,6.871938
0.137033298252344,2.680688244680451,1.0318433129209703,-0.0005639758426562,0.0361238023847337,-0.0094294924230177,1.681356301499591e-05,-2.535523312360243e-06,3.8726782679287465e-05,12019,2.746748,48.732634,5.492938
0.1531355865865728,2.539183598136749,0.777572435574944,-4.449079344789539e-06,0.0270257868208133,-0.0098935126517739,1.975331232726844e-05,7.821935146741727e-07,4.493872496394471e-05,12020,-2.89487,55.597917,-0.338853
-0.2862572725032991,2.2348249356695224,0.3753809573825977,0.0002433683484644,0.0153317941291378,-0.0081173320144344,2.1644032487291325e-05,4.9769313507298605e-06,4.8368217723348026e-05,12021,-10.331253,57.591314,-7.090972
-1.242239780174046,2.109178118249178,0.0881441206031892,0.0001425639099035,0.0019484956102405,-0.0038242669738005,2.2341836907268315e-05,8.858933483975162e-06,4.891909870158534e-05,12022,-16.969192,54.238783,-14.869797
-1.834174548768344,1.991508514190711,0.0263427699636315,-0.0001915782001665,-0.0117909907798173,0.002279091420966,2.180109442576835e-05,1.1332246169909246e-05,4.674101609082406e-05,12023,-20.220905,50.867379,-16.711572
-1.7724816898026354,1.3438235255722764,-0.020456149033042,-0.0005871566857844,-0.024709032509508,0.0091738111033367,2.0178259177226995e-05,1.1789549921106275e-05,4.240019577076404e-05,12024,-18.303386,47.519833,-14.170312
-1.57111754324731,-0.04554883581117,-0.0456675280654384,-0.0007399745282277,-0.0357666383226422,0.015039316741483,1.7788656642042223e-05,1.039821700945232e-05,3.670888696805974e-05,12025,-13.29603,43.198177,-8.935454
-1.459350239804008,-1.2038695980802077,0.0636520297647945,-0.0005442923170773,-0.0441430519073845,0.0190677780186704,1.4872586971723375e-05,8.028764057116951e-06,3.014458181840076e-05,12026,-8.195722,37.668182,-3.423018
-1.738956643663463,-1.3230209528498948,0.1087500109041601,-0.0001151345325585,-0.0494307920982449,0.0215701981025573,1.160994609937822e-05,5.591041697674206e-06,2.298371703476036e-05,12027,-4.197694,31.061639,0.212737
-2.647962903151642,-1.1220866834706569,0.0187145302582832,0.0004247580170157,-0.0517041895863458,0.0227129697874521,8.248579251638452e-06,3.4526623243980463e-06,1.5726314925695485e-05,12028,-1.411166,23.708517,0.966916
-3.656005084097059,-1.359294720248011,-0.0313789260530325,0.0008383111106172,-0.0517522723551859,0.0230504966401122,4.938327035087581e-06,1.6614885446462517e-06,8.70050896399203e-06,12029,0.37143,16.608014,0.94783
-4.360195688988156,-1.903880774767439,-0.0460160091488777,0.0009903097894346,-0.0498198263659974,0.0228098449699954,1.6483124998464666e-06,1.7363447652081574e-07,1.8543872661603988e-06,12030,2.718811,9.701712,0.996564
-4.798279507535492,-2.646503007256601,-0.0977670108916137,0.0008662898610918,-0.045666178475889,0.0217735652171854,-1.5764379647381337e-06,-1.329739590539302e-06,-4.6255213231819846e-06,12031,5.341371,3.055731,0.998523
-4.789857682560289,-3.33864497506736,-0.143771676308741,0.0003767810938939,-0.0394906113750303,0.0200596671137205,-4.533955474957702e-06,-3.101453665859709e-06,-1.0242081179244257e-05,12032,8.011274,-2.627114,0.254459
-4.499984577467012,-3.394224851918769,-0.2138802956404482,-0.0005901455881229,-0.031704379495796,0.0179435093310996,-7.103513646570853e-06,-4.803098361150128e-06,-1.4873478044425186e-05,12033,6.937224,-7.963093,0.336157
-4.427145761740147,-2.8577068449339453,-0.3488564562780348,-0.0020261278445336,-0.0227785642227401,0.0155771677053705,-9.197138265941352e-06,-5.941805047366472e-06,-1.8583142859756138e-05,12034,9.920247,-11.624927,-0.184627
-4.316253645576489,-2.4088154250540947,-0.4154497498350822,-0.0038038167158559,-0.013398027165533,0.0130832464918374,-1.045124116424448e-05,-6.589373658415299e-06,-2.072725032150292e-05,12035,12.077253,-14.261316,-0.34168
-3.949329963033214,-2.253518855103833,-0.3882605916210561,-0.005687208003862,-0.0044772965360099,0.0105810759438208,-1.0500005863600088e-05,-7.025839193003015e-06,-2.054859602283219e-05,12036,11.749045,-14.903424,0.45742
-3.74672769563745,-2.1147050361600765,-0.3678852662540749,-0.0072655911553958,0.0027581186978375,0.0081496606572176,-9.528421869265572e-06,-7.028386325983964e-06,-1.8518018538960956e-05,12037,8.730718,-12.286256,2.397371
-3.1081409650579763,-2.001336728703212,-0.2025762284260379,-0.0083487884955022,0.007702829416338,0.005895225762332,-8.087961934062531e-06,-6.28698769269966e-06,-1.584141372723862e-05,12038,8.444701,-7.636999,3.394471
-1.1222129204042153,-1.7174743782715909,0.1671940107398193,-0.0089754105031043,0.0104351155039537,0.0039475697113471,-6.614696009982465e-06,-5.091506437563977e-06,-1.3262163028847142e-05,12039,8.567491,-3.422861,2.968475
1.2787767399552536,-0.7882937369290937,0.4026194432017407,-0.0091680237725102,0.0112312549336289,0.0024059611354613,-5.44179365946214e-06,-3.916072036221619e-06,-1.126324158221298e-05,12040,6.203553,-1.070122,4.300955
2.8375660517153,0.387455874022687,0.3732504153778171,-0.0090458990649205,0.0109093902041926,0.0013485136321996,-4.884910787846913e-06,-2.815517629401053e-06,-1.0480446494699736e-05,12041,4.769349,0.259316,4.591137
3.6838499694275697,1.0097679035895415,0.314528483068997,-0.0086759983499635,0.0099231008197931,0.000809102208766,-4.970024449787194e-06,-1.7413571141824988e-06,-1.100604510185876e-05,12042,3.918324,0.28197,4.599266
4.080997643728156,1.1104927218693337,0.2909287748448301,-0.0080575596895853,0.0083525668019495,0.0007577668750698,-5.32513298345101e-06,-9.449074943854742e-07,-1.198934377712196e-05,12043,3.52066,0.084525,4.414312
3.929689512131506,1.1129309973032622,0.2231970466237989,-0.0072933992578566,0.0065516252464778,0.0010994424640506,-5.594948194625199e-06,-6.151226948910945e-07,-1.2631081151148996e-05,12044,3.336973,-0.044001,4.227445
3.637057426085769,1.084863600137418,0.1672723862997074,-0.0065651234047354,0.0049551348645902,0.001642822582123,-5.735155805876286e-06,-5.356940954123013e-07,-1.2914704877835068e-05,12045,3.201656,-0.080767,4.069727
3.5387440369924823,1.0199206627314377,0.1572680006803007,-0.005954406391005,0.0037875981223006,0.0022768047983202,-5.826832908682135e-06,-4.0913629961351675e-07,-1.3092528811666454e-05,12046,3.136861,-0.062443,3.987824
3.393127957128387,1.0072007118317228,0.1437876783314079,-0.005457985857849,0.0030980044356976,0.0029666025126433,-5.906895822539081e-06,-2.119176972543682e-07,-1.3243673708564717e-05,12047,3.113682,-0.003255,3.96523
3.18401860989279,1.0003167250530725,0.1156362924858578,-0.0050593059773205,0.0027408673017137,0.0036301407189213,-5.991239465480285e-06,-6.690510758363489e-08,-1.3394512268718754e-05,12048,3.090788,0.084608,3.944649
3.029912111987616,0.9579548934141832,0.0832938714726186,-0.0046812788331346,0.0022617906021708,0.0041755129142243,-6.099030429792708e-06,4.8134363032830586e-08,-1.3608830400633604e-05,12049,3.057924,0.180638,3.91483
2.8718286401902677,0.9192445434683144,0.063386353083459,-0.0043136046379928,0.0015752546316428,0.0045357657727578,-6.247380427748019e-06,2.810606901153633e-07,-1.3938577092711311e-05,12050,2.995694,0.284918,3.865174
2.731103374312184,0.8838954434583841,0.0640970144845911,-0.0040201614306428,0.0009674103021042,0.0046593828885642,-6.433322216718792e-06,6.594228583451006e-07,-1.438360947703911e-05,12051,2.898953,0.399992,3.770822
2.595186709961906,0.8470347241250246,0.0639327592889833,-0.0038416897449994,0.000671740289412,0.0045211263453986,-6.632796818896403e-06,1.0718002857863629e-06,-1.490493121189801e-05,12052,2.717989,0.521724,3.591451
2.435953109216566,0.8022055244635666,0.0589475688313329,-0.0038298049688188,0.0010506955233303,0.0041339962629576,-6.824221565580061e-06,1.4808318785612037e-06,-1.5444937870035143e-05,12053,2.45243,0.612415,3.341523
2.28322076290094,0.741784342174763,0.0661619227604904,-0.0039884995756155,0.0022773036047659,0.0034997694634344,-6.994557867909848e-06,1.93375598899846e-06,-1.5942346696177e-05,12054,2.148884,0.678744,3.064712
2.1310413367916032,0.6699837116463956,0.092855656606376,-0.0042563387883538,0.0042796069785955,0.0026165726363976,-7.139555178233938e-06,2.393341957929684e-06,-1.63773192097226e-05,12055,1.837142,0.777589,2.788993
1.9795874801225304,0.5907258171762524,0.1318391580931472,-0.0045512185007704,0.0070182196464804,0.0015206522986773,-7.265247885271373e-06,2.8266899125135614e-06,-1.6769587251755262e-05,12056,1.568765,0.974197,2.524545
1.829981915449164,0.5259305805004786,0.1712176735057328,-0.0047405178607011,0.010377863674826,0.0002849517862349,-7.357684020814964e-06,3.3170424703703125e-06,-1.7089147987264402e-05,12057,1.353091,1.309385,2.262511
1.6832257064398288,0.4965620362442345,0.2125487303048133,-0.0047648000097144,0.0143128654383978,-0.0010601370602919,-7.368824495523151e-06,3.870288172311118e-06,-1.723673404882919e-05,12058,1.156286,1.841796,1.995008
1.5429485266136838,0.4819487376612573,0.239980365015875,-0.0046470783463704,0.0188757253140823,-0.0025234024302269,-7.217026420678918e-06,4.32745365183038e-06,-1.7041733769594065e-05,12059,0.946912,2.681679,1.686149
1.3928209948409294,0.4584750423767314,0.272317727511882,-0.0044101771973024,0.0240561660011085,-0.0041117233954299,-6.722214660045579e-06,4.480716426112448e-06,-1.6077473582748655e-05,12060,0.755539,3.938547,1.310403
1.251084139007781,0.4599424025579467,0.422167092815797,-0.0041164009308322,0.0298211706142515,-0.0058507762626757,-5.592232330397649e-06,4.154600625015909e-06,-1.3615158973990948e-05,12061,0.823095,5.678984,0.888721
1.108478438558599,0.4932343159276416,0.694783966951479,-0.0037953833606076,0.035826485379458,-0.0077083854977899,-3.568985853268676e-06,3.309920340344767e-06,-9.000350115092915e-06,12062,1.16195,8.254719,0.552549
0.913311900345115,0.5068497361098188,0.9127599910067864,-0.0034371599107977,0.041331125436508,-0.0095827722778303,-5.813891142790374e-07,2.1220474224523152e-06,-2.031724334796041e-06,12063,1.650226,12.459308,0.455252
0.6934706319055551,0.631006788130057,0.9677473958105072,-0.0030613488225347,0.0452862548347431,-0.0113462719104663,3.19639485131536e-06,9.91652255890556e-07,6.908040389465792e-06,12064,2.680148,19.244681,0.580143
0.4913345777093948,1.1798035259452182,0.919923023453706,-0.0027004106395356,0.0461397768380949,-0.0128119296402112,7.347281400959444e-06,5.096711418061187e-07,1.6797591596529464e-05,12065,3.673164,28.033068,0.450639
0.4022833391130972,2.10904030233204,0.8467419641474098,-0.0023610355920958,0.0432178495285923,-0.0137267795087495,1.1287596861705771e-05,1.265786819693595e-06,2.610271911384109e-05,12066,2.0475,37.39524,-0.132365
0.3983792988003891,2.827769582832306,0.7790105601626341,-0.0020290838451667,0.0368074536759588,-0.01375074768175,1.4455888719380126e-05,3.521008531299334e-06,3.33127696212531e-05,12067,-2.496836,45.510065,-2.632606
-0.013287500136579,2.9304717562135445,0.6832852578711917,-0.0016744178977234,0.0273769506704614,-0.0123994907638085,1.6527434304532427e-05,6.908053818981586e-06,3.760172708440665e-05,12068,-9.315705,50.586153,-7.295082
-1.048737961068856,2.687222767193221,0.3920605294170777,-0.001238356280949,0.0160525072406011,-0.0089983857897497,1.743667889803347e-05,1.0468364255144282e-05,3.894382299932639e-05,12069,-14.401312,50.315715,-14.178469
-1.992295699863931,2.4517694086115167,-0.1613737216377022,-0.0006669656610533,0.0037651568616795,-0.0035075727555143,1.7233904387141696e-05,1.3123169087989986e-05,3.770005857449174e-05,12070,-17.894866,47.333663,-17.276046
-2.1630273669670954,2.069398731814574,-0.7010753780200025,9.37883421902202e-05,-0.0087304501725226,0.0033950888946551,1.6014711573976435e-05,1.411679786136329e-05,3.433492160198719e-05,12071,-18.190907,44.780804,-16.698241
-1.918819862012042,1.193760479468368,-0.9347782609385415,0.0011309414410257,-0.0205072071156849,0.0106630944532464,1.391668411283236e-05,1.3230715257038158e-05,2.934133468519052e-05,12072,-14.691496,41.727639,-13.496928
-2.01707518142335,-0.0545049353346066,-0.8987940212867069,0.0025651990228669,-0.0306384118317777,0.0165192960877484,1.1090148310182588e-05,1.0891810779707306e-05,2.310679783718216e-05,12073,-9.84278,37.489361,-9.0255
-2.539192430552624,-1.070094702627495,-0.8133773671567324,0.0044203024952438,-0.0384526349993691,0.0201324304979732,7.73949959556655e-06,7.885498509471133e-06,1.5996875040097175e-05,12074,-5.539025,31.808338,-5.099097
-3.175762465453332,-1.4815758918888473,-0.7909525657969039,0.0066138262248997,-0.043580488462295,0.0216911068615821,4.191599939024032e-06,4.769274012261984e-06,8.644395878523855e-06,12075,-2.128837,25.243475,-3.291879
-3.774888804318767,-1.4966338150752028,-0.7740165963197128,0.0090102328005361,-0.0460335461359243,0.021304862526715,7.648607551836515e-07,1.7334153664353028e-06,1.7402119734389952e-06,12076,0.610878,18.509652,-3.188254
-4.288307058135525,-1.5071854980970771,-0.7288843520257584,0.0113665941620702,-0.0463921770496869,0.0194983804108074,-2.382084573664491e-06,-1.0885654754394685e-06,-4.402553159069047e-06,12077,3.318053,11.938841,-3.29152
-4.745332261643895,-1.7389888211937357,-0.7880292193817354,0.0134125309431774,-0.0448699281498337,0.0165856358434811,-5.1183295266715925e-06,-3.523467805291849e-06,-9.617214865756151e-06,12078,6.450938,5.868579,-3.661604
-5.017088081974256,-2.1083426953415594,-1.0418268487161204,0.0148273523400446,-0.0413768338409012,0.0126005143976743,-7.144817324970258e-06,-5.511332758723583e-06,-1.3364166426976156e-05,12079,10.121761,0.785167,-5.080163
-4.956635550467329,-2.2685054401020563,-1.235568920285007,0.0151192795359886,-0.0362252433892351,0.0080406522035713,-8.106261007285158e-06,-6.979580389700255e-06,-1.4967060083303788e-05,12080,11.811346,-4.331855,-6.984779
-4.714077957855352,-2.12232184582732,-1.0419958683490584,0.0135969080639779,-0.0299881951509389,0.0037677386782222,-7.992009548107104e-06,-7.588821839454776e-06,-1.4569776298229405e-05,12081,14.017347,-7.812754,-11.05293
-4.414072518491851,-2.0143252131445197,-0.5722872615829919,0.0101007583038748,-0.0231091981444407,0.0002503901904106,-7.232391848936225e-06,-7.031633754707601e-06,-1.3221736403658395e-05,12082,17.725341,-9.856792,-16.836567
-4.240249006007902,-2.0342404926295483,-0.1598982815609874,0.0050568044825898,-0.0160045370116969,-0.0023577972343476,-6.271477133210621e-06,-5.49579281907198e-06,-1.1765455269541869e-05,12083,20.952635,-10.098522,-22.28721
-4.1428619815658525,-1.963987894152479,0.0704951256811944,-0.0008433133893194,-0.0092251907289525,-0.0038940075309505,-5.339103074487563e-06,-3.512822814417571e-06,-1.0471167634971791e-05,12084,20.451652,-8.779848,-25.781224
-3.006701678590407,-1.7784480093307466,0.1509684295708152,-0.0063450696120086,-0.0034237783005123,-0.0043639582224412,-4.591349755992124e-06,-1.5532815005171435e-06,-9.545638520870002e-06,12085,14.313504,-7.931558,-23.807579
-0.229031347687415,-1.361008338035501,0.1428105603363661,-0.0106511147196809,0.0010325086876201,-0.003819903398261,-4.124002921508099e-06,5.200207277440097e-08,-9.1077467150703e-06,12086,11.629087,-5.18184,-21.959704
2.4665821458570663,-0.6891400954055701,0.1181178451331586,-0.0134279207423353,0.0040855863218801,-0.0023757590555178,-3.845356635538828e-06,1.023009715091486e-06,-8.842295922007033e-06,12087,9.873662,-2.286332,-20.895564
3.4466279165347844,-0.1911967162748986,0.1153200878194588,-0.0146440126601137,0.0058420378095227,-0.0004478144401286,-3.538898014528744e-06,1.2645774793474509e-06,-8.259332714329598e-06,12088,8.497428,-0.366931,-19.80234
3.4492568909867467,0.0001449593939254,0.1162369819803849,-0.0149139642815139,0.0067349898505257,0.0011998723082285,-3.178575805391851e-06,1.0068898246010704e-06,-7.431786970263763e-06,12089,7.108765,0.537243,-19.465851
3.441595658754591,0.1853889352675251,0.1111080617138216,-0.0145694696957527,0.0069826380000661,0.0022535116648754,-2.973471618640897e-06,5.475013343391749e-07,-6.935158786550704e-06,12090,6.258008,0.38158,-19.696853
3.299614713432548,0.3547950860421221,0.1110518830780477,-0.0137564807497994,0.0065999772569375,0.0028412296567194,-2.9898334178130226e-06,-2.079745805942672e-08,-6.920112308339096e-06,12091,5.889558,0.217765,-19.801802
3.078385053857963,0.3561852550008951,0.0968789607346765,-0.0127377111897867,0.0058378634755829,0.0030988228334033,-3.0271828011010987e-06,-7.629790033208392e-07,-6.898602169672748e-06,12092,5.735929,0.265292,-19.805589
2.944512895552972,0.3316794675937101,0.0515653415364882,-0.0117229582297606,0.005090169301024,0.0033957680021903,-2.9046973626192407e-06,-1.7760014022334124e-06,-6.445582880551156e-06,12093,5.543213,0.352377,-19.794668
2.8040075653118297,0.3368332864173194,-0.0060703314108994,-0.010882182523471,0.0045417312478936,0.0038582475979233,-2.665541175768553e-06,-3.0625600098544883e-06,-5.684035535379278e-06,12094,5.377669,0.467848,-19.82251
2.6795692108749813,0.2962460023648005,-0.0376060560087527,-0.0103337032461353,0.0042016577063722,0.0043255792909173,-2.466225589964156e-06,-4.483877325311215e-06,-5.017781513969593e-06,12095,5.224489,0.626329,-19.850389
2.573027323271344,0.2826020940878857,-0.0327566926415418,-0.0099886888408866,0.0040122929283175,0.0047580900858268,-2.344791134959428e-06,-5.920413856220852e-06,-4.552331095210149e-06,12096,5.080161,0.766224,-19.850655
2.455511041269024,0.2989339490771781,-0.0212824230392157,-0.0094973915872218,0.0037477124331554,0.005110235402217,-2.2059209848397373e-06,-7.403920465295813e-06,-4.056371248943894e-06,12097,4.961832,0.922676,-19.865422
2.346000113723589,0.2871264414564163,-0.0156078497101569,-0.0087783979497247,0.0033737851994074,0.0053381043824555,-1.9918047584291643e-06,-8.99711313566443e-06,-3.398824760953073e-06,12098,4.822292,1.077802,-19.926874
2.218820326704348,0.2754231051990917,-0.0057829908237221,-0.0079946624670773,0.0030605609230131,0.0054425993997512,-1.732851689282769e-06,-1.0629956307477062e-05,-2.6610128703361386e-06,12099,4.666688,1.207116,-20.01521
2.0800326421806576,0.2573622518771424,0.0057435715387984,-0.0072260346848002,0.0029292069786261,0.0053727740829892,-1.450650867819858e-06,-1.2214772564638346e-05,-1.863587056120597e-06,12100,4.539588,1.325611,-20.09918
1.9521528702788955,0.2197402447601046,0.0105730573215059,-0.0065891675232035,0.0031483588371393,0.0050356424742224,-1.1015123473280846e-06,-1.3863155322111215e-05,-8.766246624620985e-07,12101,4.417234,1.447049,-20.20969
1.8244578375050644,0.1953715489149715,0.0100940560720163,-0.0060974648111766,0.003742036665479,0.0043693078048263,-6.314512861716427e-07,-1.5733396790730206e-05,3.714045076688478e-07,12102,4.266467,1.582311,-20.335085
1.6840554960011611,0.1882816733926248,0.008698158445466,-0.005613402800476,0.0045434905256822,0.0033287837929259,-5.189947403932583e-08,-1.776052122038225e-05,1.7900087783109378e-06,12103,4.106148,1.771453,-20.484095
1.5378986050731491,0.1865909678445935,0.00587983542286,-0.0049820760732959,0.0053372597978525,0.001855266590372,5.646286174071349e-07,-1.9815121560183403e-05,3.2526024083452712e-06,12104,3.893265,1.990503,-20.684125
1.3996423779571416,0.198585280779991,0.0021245892654647,-0.0039654674904581,0.0057714882773052,-0.0001131759799377,1.1647011990204229e-06,-2.1905016163714696e-05,4.714383723010949e-06,12105,3.634359,2.21724,-20.926882
1.261511131003132,0.2107086370166314,0.0037554907663013,-0.0024002299078575,0.0056942796718041,-0.0026280398897535,1.76629304111032e-06,-2.4017600391327496e-05,6.214315834288053e-06,12106,3.380186,2.460594,-21.19422
1.1352888594300996,0.207481003783655,0.0096544395718405,-0.0002104858406265,0.0051813588478563,-0.0057317816310806,2.420410113098267e-06,-2.6020334416650677e-05,7.813189695805123e-06,12107,3.106888,2.74197,-21.501784
1.0155547689468716,0.2087348149493159,0.0122602940451652,0.0027303913277931,0.0043077913405035,-0.0094575825287669,3.1751512484240385e-06,-2.78247187963836e-05,9.587190348669323e-06,12108,2.77291,3.094159,-21.872255
0.8166293581287302,0.223882086370902,0.0101767497642127,0.0065606038756973,0.0032569148432764,-0.0138237563104888,4.132059143178076e-06,-2.949364217988436e-05,1.1739268760234754e-05,12109,2.367584,3.544136,-22.448827
0.5486373322983413,0.274587363709804,-0.003858368268051,0.0112937279999577,0.0021319795428058,-0.018760987522007,5.479176171353331e-06,-3.097086085919244e-05,1.4614435538652018e-05,12110,1.776316,4.023221,-23.524363
0.3534532630655422,0.3542953103864839,-0.0278355813872021,0.0168103981751887,0.0009388027159445,-0.0240912093276986,7.328488472708141e-06,-3.170843571392946e-05,1.836456475595461e-05,12111,0.937166,4.667699,-25.210134
0.2683105760909499,0.3687373844559771,-0.0426489838721937,0.0228702875734167,-0.0002265094532636,-0.0295331719607482,9.52706173363666e-06,-3.086919507980251e-05,2.2609167222765884e-05,12112,0.173136,5.649965,-28.099424
0.2175843931821975,0.3586833127652569,-0.0407908136023154,0.0290405192600298,-0.0012178306172299,-0.0346472796121976,1.1736652397559604e-05,-2.7854641779589397e-05,2.662623556869773e-05,12113,-0.194931,6.790782,-33.485572
0.1281843214085314,0.3727094964976137,-0.0228042510473249,0.0349588513014992,-0.0019642502701156,-0.0391065072308685,1.360451555877331e-05,-2.2499930273301865e-05,2.9709664231238405e-05,12114,-0.825833,7.582124,-41.122196
0.0234731807428059,0.1493510164280911,-0.0150045382720051,0.0403081448194739,-0.0024545613571404,-0.0426865974294101,1.478035873986493e-05,-1.5044665326977445e-05,3.120199451713265e-05,12115,-1.739601,7.824808,-50.163926
0.0990368034648236,-0.3792902425333233,-0.0253988265600847,0.0446607046908839,-0.0027065390816395,-0.0450662640954248,1.4942376003639748e-05,-6.138497362888735e-06,3.054226351176025e-05,12116,-2.84273,7.754027,-59.764819
0.410713186531899,-0.8249798368095793,0.0486825203684576,0.047512700482322,-0.0028024235604167,-0.0458770202478218,1.3963841874198307e-05,3.2068676573562778e-06,2.759668252611124e-05,12117,-3.642629,7.617158,-69.443681
0.6433416819951017,-0.9828862375743416,0.2566868766898238,0.0486162148040716,-0.0027774049822143,-0.0449769772338275,1.2043809634229636e-05,1.1973314103808546e-05,2.287949136801196e-05,12118,-4.02972,7.576559,-78.843696
0.5848297126179269,-0.9875656817021454,0.4491721613981884,0.0480035360347778,-0.0026213435901115,-0.0424666329366354,9.568571631798153e-06,1.9534234908586377e-05,1.7231769977921366e-05,12119,-4.223956,7.63815,-87.503624
0.4264115813029967,-0.9580029484099756,0.5188233882104669,0.0458842416426881,-0.0023664207211384,-0.0386265417037203,6.840093138916368e-06,2.561653884517607e-05,1.1268533327348838e-05,12120,-4.195256,7.691959,-95.342258
0.3454013993479864,-0.9871717534766064,0.5421076551555188,0.0427941375200102,-0.0020663928116383,-0.0340459964075747,4.01850032134501e-06,3.0157572507062333e-05,5.270959315094422e-06,12121,-4.042101,7.628801,-102.330817
0.2878828322758534,-1.1108793685447171,0.5694943618860107,0.0390016451381019,-0.001749044447585,-0.0290495435523961,1.2498724622687197e-06,3.325537235214394e-05,-5.222936067432845e-07,12122,-3.734523,7.395646,-108.519943
0.1888706426292546,-1.1589934783607292,0.5601173707321305,0.034513478314189,-0.0014246605457052,-0.0237027926326553,-1.2283307541209569e-06,3.49618909818688e-05,-5.670899815703242e-06,12123,-3.207853,6.984362,-113.870224
0.055266143818184,-1.0361523834851942,0.5081476920019777,0.0295179993249101,-0.0010965811398171,-0.0182247358872454,-3.1016833503475624e-06,3.5161280427171445e-05,-9.556099483914716e-06,12124,-2.482485,6.409912,-118.220274
-0.0745069711021662,-0.9491989891559076,0.4209081721863194,0.0242617470481009,-0.000749803657784,-0.0128633039521043,-4.138354861307896e-06,3.383388910739088e-05,-1.17081405488103e-05,12125,-1.712292,5.716904,-121.34259
-0.1774217582452803,-0.928801384432416,0.3004109984777348,0.0189661725123348,-0.0004057050172234,-0.0078253663496532,-4.277746688509244e-06,3.131642067641723e-05,-1.2001493181455544e-05,12126,-1.009207,4.910685,-123.05322
-0.2892725721822006,-0.6181733289749825,0.2067548436512638,0.0138808164946131,-0.000126211657468,-0.0033168819269873,-3.5512628249225426e-06,2.8065548619640755e-05,-1.0486552697416355e-05,12127,0.18835,4.218372,-123.022691
-0.4695940392719805,0.0021230670918089,0.1978555484165005,0.0092546529380506,1.726056158792553e-05,0.0005070604002398,-2.1126056459722604e-06,2.4433331277606223e-05,-7.460206282589591e-06,12128,2.091824,3.7378,-122.498965
-0.729154996228182,0.4078841487670424,0.2721143890395213,0.0053363242883747,-7.590380321970385e-05,0.0035562378874656,-3.097447832540882e-07,2.085575536340193e-05,-3.663010101134301e-06,12129,2.571501,3.437301,-122.171302
