AccX_processed,AccY_processed,AccZ_processed,GyrX_kalman,GyrY_kalman,GyrZ_kalman,MagX_processed,MagY_processed,MagZ_processed,PacketCounter,Roll,Pitch,Yaw
-0.6707955760524832,0.0521571409497958,0.0821292935858576,-0.0032445149702339,-0.0003961197588104,0.0022466195129303,-8.098321388727066e-08,-4.138097498202342e-07,-2.616655436618581e-07,11582,-44.732944,80.558421,-14.174319
-1.9669882634859015,0.1719264927547092,0.2575387177554631,-0.0027847931816527,-0.0002524549750297,0.0019798329216984,-9.365135571190468e-08,-4.802668045015615e-07,-3.731934543254954e-07,11583,-44.723245,80.468996,-14.144251
-2.578110993176418,0.2313257504707462,0.3417781442231026,-0.0021034014144866,1.209053134406334e-06,0.0015113752367115,-1.0430960416468559e-07,-5.350027432402768e-07,-4.617574858384029e-07,11584,-44.676656,80.404788,-14.08588
-1.863388252360552,0.1798403450987218,0.2555370457158985,-0.0011260881033542,0.0002953297331727,0.0008798005707246,-1.1295795924561337e-07,-5.780175660363801e-07,-5.273576382005807e-07,11585,-44.592814,80.342514,-13.995983
-1.8942595825067252,0.1808740975572668,0.2558538998879172,-8.894623609124455e-05,0.0005879425081819,0.0002108105800544,-1.1959642095468792e-07,-6.093112728898711e-07,-5.699939114120285e-07,11586,-44.497159,80.270291,-13.891127
-1.7763633441544835,0.1721947027538476,0.2384954414320721,0.000608858626542,0.0008688504038258,-0.000308956124728,-1.1674164551834986e-07,-6.167671046044832e-07,-5.462505966997257e-07,11587,-44.505166,80.192238,-13.88469
-1.5214917784459008,0.1570549257482962,0.2039846417592493,0.0009558190614405,0.0011369638833292,-0.0006663910584709,-1.2222301613251394e-07,-6.463937947694693e-07,-5.504572792216798e-07,11588,-44.436197,80.143372,-13.843919
-1.4417662210925006,0.1532187584984329,0.1898783708803964,0.0012160150608127,0.0014104469658991,-0.0009762774503344,-1.30115599981666e-07,-6.51347070564217e-07,-5.865997438924834e-07,11589,-44.409499,80.106171,-13.844395
-1.240816300024119,0.1358224331441225,0.1673247157457584,0.0014525922895181,0.0016897453984401,-0.0012604935268291,-1.3453982566122217e-07,-6.370440489162521e-07,-6.114179101945956e-07,11590,-44.395589,80.083112,-13.820113
-1.0581158062865543,0.1203670843730208,0.1520144225059054,0.0015927241999693,0.0019537980222089,-0.0014738571935745,-1.3666002272494938e-07,-6.515760942672274e-07,-5.967888520098928e-07,11591,-44.358052,80.090665,-13.770493
-0.901458585928232,0.1061817801941219,0.1383446723006503,0.0016554785417362,0.0021886090864461,-0.0016069366572717,-1.3770044494961196e-07,-6.787869407178723e-07,-5.645638674454202e-07,11592,-44.280079,80.117444,-13.698784
-0.7081797716724965,0.0865490885126345,0.1283991387841176,0.0016650844874616,0.0023764027480847,-0.0016424001413775,-1.358977811631989e-07,-6.516372138740812e-07,-5.581450364928507e-07,11593,-44.133422,80.144283,-13.5789
-0.5549104730105908,0.0703716587516601,0.132159661441639,0.0016439430509249,0.0025082377312697,-0.0015803800058026,-1.3087646147992748e-07,-5.612201306338851e-07,-5.90420379004614e-07,11594,-44.015226,80.175218,-13.493242
-0.3847104577921771,0.0551549354036396,0.1247013390456686,0.001632056728347,0.0025876434866708,-0.0014481371023282,-1.2459422441843166e-07,-4.723289036518991e-07,-6.273774620704938e-07,11595,-43.778618,80.236279,-13.306519
-0.2050756425051343,0.039610463743723,0.1072650162283794,0.0016383422040367,0.0026170675683373,-0.0012609193301167,-1.1509834485204313e-07,-4.10976705040178e-07,-6.260899148645691e-07,11596,-43.438255,80.288193,-13.046075
-0.0242359483170147,0.0226879909010265,0.1014821148308342,0.0016391827185204,0.0026028787397553,-0.0010303239310008,-9.94375044735774e-08,-3.2624502659574734e-07,-5.896917944945e-07,11597,-43.125236,80.326852,-12.836405
0.1782302559957516,0.004361446019886,0.1165836156538697,0.0016311990849936,0.0025514462959441,-0.0007720043911562,-7.43870575568134e-08,-1.547719765204618e-07,-5.274982634822709e-07,11598,-42.758389,80.370143,-12.616683
0.381297805457185,-0.0149462361194742,0.1392284924509488,0.0016212519400961,0.0024683263292286,-0.0005004996082395,-3.1835889596135094e-08,1.3480769879856558e-07,-3.972065731632943e-07,11599,-42.178273,80.401168,-12.292286
0.5586865442850856,-0.0358622734911584,0.1438939470204555,0.0015945061883753,0.0023652668831102,-0.0002313484420886,2.7961962410608443e-08,4.951498297053042e-07,-1.8454019266706594e-07,11600,-41.427524,80.397115,-11.882948
0.7006749241195043,-0.0507135831736755,0.1314211831537016,0.0015194504737788,0.0022601586740573,1.89777122413476e-05,8.831564026333759e-08,8.267489181789885e-07,3.3042903211881645e-08,11601,-40.530529,80.359991,-11.330074
0.8337867835229319,-0.0554743033175152,0.1262111284736269,0.0013888276331922,0.0021618111356641,0.0002374239585129,1.350052847998523e-07,1.1035508856651624e-06,1.8130882101050298e-07,11602,-39.516101,80.298851,-10.636862
0.9826994296189316,-0.0607105605618879,0.1318299742408145,0.0012175528303286,0.0020701279362497,0.0004147126870357,1.7040682214521714e-07,1.3389201180212414e-06,2.979957330245281e-07,11603,-38.309333,80.245084,-9.730974
1.1387727622754935,-0.0728592417470055,0.1253283660030046,0.0010246303654107,0.0019832880953146,0.0005446276873495,2.018623935616533e-07,1.4669153194098018e-06,4.75865784756878e-07,11604,-36.971299,80.212785,-8.690739
1.2872742078348822,-0.08370020176388,0.0951835086614848,0.0008449401967267,0.0018930692447683,0.0006261225875459,2.29437682703428e-07,1.4456299050525429e-06,7.175300282101819e-07,11605,-35.76887,80.189905,-7.737189
1.4267565520548262,-0.078786302813022,0.0516333969849868,0.0006901803203057,0.0017950503911885,0.0006646285731301,2.550248982715304e-07,1.3941957379424968e-06,9.452189744582628e-07,11606,-34.76441,80.201102,-6.905776
1.55898386056427,-0.0465676439307054,0.0066855380006176,0.0005457379531022,0.0016887274428086,0.0006744360542954,2.865105448427131e-07,1.465201307675977e-06,1.1172251146262622e-06,11607,-33.920524,80.266913,-6.16483
1.6772521247363803,0.0133443445084677,-0.0343949448432977,0.0003973838991155,0.0015680629707977,0.0006829173250281,3.206638326647554e-07,1.6419743563222709e-06,1.2305982491763345e-06,11608,-33.178207,80.395134,-5.461232
1.7731865533724875,0.0892416832192788,-0.063836908593017,0.000218806788266,0.0014231213147058,0.0007351220101729,3.420418826520599e-07,1.8069528109147009e-06,1.2615050911302422e-06,11609,-32.681335,80.578799,-4.903705
1.8503781055522417,0.1567079391444981,-0.1051593873855949,5.470733541979803e-07,0.0012506694564331,0.0008504190464524,3.459506926497754e-07,1.9457071023288533e-06,1.1810574260085664e-06,11610,-32.843223,80.774133,-4.839083
1.916563739386484,0.1835034378233113,-0.246612492070963,-0.0002462914247081,0.0010537108259604,0.0010214356121779,3.408320126259092e-07,2.107240734703607e-06,9.933863916881444e-07,11611,-33.754951,80.868561,-5.414517
1.985615068667964,0.1611747137517331,-0.5032624183456633,-0.0005131252138006,0.0008377034222931,0.0012385454823405,3.292102873289334e-07,2.258734461316652e-06,7.254175939094723e-07,11612,-35.357477,80.782437,-6.72395
2.075446813770847,0.1226367241003875,-0.7195856549004811,-0.0007845133080501,0.0006139618853701,0.0014764417237096,3.0761059441151933e-07,2.3482721642777686e-06,4.094621993699157e-07,11613,-37.060253,80.608697,-8.289776
2.176492000601596,0.0899227253916795,-0.7787074821991901,-0.0010505154028167,0.0003914935626248,0.0017223072143685,2.778184560355516e-07,2.4042536661045707e-06,7.666300116984651e-08,11614,-38.199503,80.522281,-9.396406
2.251912682418489,0.0479993107255754,-0.7491537653068072,-0.0013088477793111,0.0001774188832992,0.0019775278573381,2.434888859725701e-07,2.461979034820843e-06,-2.482290556039791e-07,11615,-39.249325,80.523722,-10.349298
2.2872229940508557,-0.0042674916657248,-0.724022584621809,-0.0015509702139096,-1.5315226964282504e-05,0.0022322514573436,2.051978249619562e-07,2.480733511984711e-06,-5.372455583946835e-07,11616,-40.222292,80.421417,-11.078011
2.3019318452232125,-0.048616585499162,-0.7079614218877147,-0.0017651308435029,-0.0001686721160706,0.0024715231902502,1.6441707559508818e-07,2.390177005182151e-06,-7.48866774088139e-07,11617,-40.601477,80.181615,-11.168485
2.311384787339155,-0.0631574604577069,-0.685219913847343,-0.0019439654672085,-0.0002737145373142,0.0026877543960537,1.2530450055290413e-07,2.16713139891772e-06,-8.50774883438484e-07,11618,-40.02973,79.871622,-10.467351
2.3206389962781517,-0.023394772937361,-0.6578213898754102,-0.0020831910733537,-0.0003305722605946,0.0028784188749416,9.208000455729601e-08,1.8666597512600163e-06,-8.648703700516066e-07,11619,-38.75914,79.559811,-9.297577
2.3293358528249057,0.0468614392753055,-0.6310855795413939,-0.0021801888336587,-0.000342402891357,0.003044360095474,6.945666654749731e-08,1.6076327425369228e-06,-8.461460095201777e-07,11620,-37.123209,79.282849,-7.883632
2.329092507771969,0.0684110898352682,-0.5980887228824603,-0.0022359579905645,-0.000320159114182,0.0031930940497914,6.393433111892986e-08,1.476792850554648e-06,-7.92506529303088e-07,11621,-35.640057,79.070473,-6.550141
2.32116584734272,0.0222616376238005,-0.5346919478674378,-0.0022481391571402,-0.000272771683427,0.0033257825484502,7.913085357895765e-08,1.4299456587285753e-06,-6.345222129571819e-07,11622,-34.479959,78.935703,-5.403577
2.309863871895698,0.0220813483776799,-0.444658787531357,-0.0022110099107937,-0.0002077986755406,0.003437291431612,1.0895766637992694e-07,1.3424611823444115e-06,-3.481464102569767e-07,11623,-33.2222,78.881941,-4.093804
2.2821368193742133,0.1594236390495355,-0.3683501833724678,-0.0021205011216992,-0.0001416682289581,0.0035252958219406,1.3463065105354698e-07,1.1410975820961275e-06,-3.6728259378822816e-08,11624,-31.649797,78.840058,-2.495083
2.2276470694185804,0.3413802728030907,-0.3241626062122407,-0.0019726125966521,-9.930010713735724e-05,0.0035872846319619,1.3525812452678089e-07,8.539620741481724e-07,1.6432249018912997e-07,11625,-30.043343,78.72757,-0.896336
2.1623449757733173,0.4290103601379208,-0.3012837088515704,-0.0017658782853984,-9.258921207865996e-05,0.003621272327477,1.0961821346112308e-07,5.276591738811723e-07,2.571378880271551e-07,11626,-28.751833,78.525506,0.412002
2.1118117263296403,0.4399427671783743,-0.2893554723633341,-0.001502422623249,-0.0001206231640079,0.0036268212858242,7.587040134600875e-08,1.659482937849997e-07,3.4363662847306745e-07,11627,-27.653466,78.293399,1.495882
2.069432982654223,0.4883251797058539,-0.2824409339948341,-0.0011863192292194,-0.000179794576497,0.0036027374305908,4.7356939704459854e-08,-1.676962192256301e-07,4.3472218413078586e-07,11628,-26.429145,78.038231,2.603753
2.011131630548052,0.6081402509633075,-0.279342846750207,-0.0008252437477575,-0.0002571032638344,0.0035475576767828,2.699978995899776e-08,-3.671125184446095e-07,4.852278334583563e-07,11629,-24.963413,77.720676,3.861048
1.9508123183429589,0.7233818200185846,-0.2786272595855175,-0.0004316228189356,-0.0003456006318172,0.003461675678335,2.05171220112569e-08,-4.691219491775741e-07,5.631844394427171e-07,11630,-23.739394,77.3133,4.863447
1.8992465131448737,0.7565328493956782,-0.2747323773346138,-2.416126301191084e-05,-0.0004446238941785,0.0033473826984442,2.7229913850379133e-08,-6.149249587274447e-07,7.385433235719723e-07,11631,-22.998095,76.877142,5.445177
1.847723502437119,0.7123154734595591,-0.264040414681081,0.0003690811742439,-0.0005459293018433,0.00320863741669,2.3514062281083878e-08,-8.675678192089553e-07,8.980039407280146e-07,11632,-22.381105,76.463518,5.910732
1.832417066089332,0.6455969435969836,-0.2395629011480755,0.0007074330467415,-0.0006363863895034,0.0030520811388356,-1.3082123328005744e-08,-1.1794490521006425e-06,8.93742865667604e-07,11633,-21.860265,76.069883,6.253661
1.8541022786012005,0.5770613158044087,-0.2025758322084108,0.0009698954898342,-0.0007105029402988,0.0028804544009692,-7.27890585951352e-08,-1.5115318583863508e-06,7.813866484419346e-07,11634,-21.408498,75.677573,6.56587
1.822215433734696,0.4982579030542482,-0.1780628004764754,0.001156175205112,-0.0007694753673869,0.002692349377575,-1.27132323991401e-07,-1.894538327249695e-06,7.462493220821818e-07,11635,-20.810934,75.291547,7.069209
1.7155173244305515,0.4226033295634288,-0.174723268467341,0.0012689279172561,-0.0008170881487258,0.0024860985303975,-1.6154702518288028e-07,-2.29852419279873e-06,8.364456809940068e-07,11636,-20.030054,74.931519,7.771207
1.6168073955762094,0.3567991001307287,-0.1678302724387816,0.0013241704347503,-0.0008634762003852,0.0022577189505818,-1.8669409146263354e-07,-2.6329053415088487e-06,9.214977863408284e-07,11637,-19.367686,74.533521,8.325326
1.540011967392504,0.2853346399401401,-0.1481741568243404,0.0013311528130763,-0.0009144976780783,0.0020047636507997,-2.1846583926902218e-07,-2.888351776849562e-06,9.00581582946101e-07,11638,-19.079769,74.111301,8.44603
1.436314091856644,0.2087857280952599,-0.1247004638919691,0.0012920010408959,-0.0009718483836862,0.001726544186611,-2.551672380509139e-07,-3.07251996568012e-06,7.880285722984724e-07,11639,-19.092622,73.743761,8.232363
1.3136110711926905,0.1423980328575818,-0.091852013453314,0.0012217509131259,-0.0010418630171292,0.001420390205865,-2.844324776329243e-07,-3.1464606486944237e-06,6.298042428011706e-07,11640,-19.347555,73.461956,7.807235
1.183606546352988,0.0902755729271374,-0.0512182167021701,0.0011455269883381,-0.0011336559636659,0.0010823771364609,-3.032345570833541e-07,-3.102009326929152e-06,4.429529803265578e-07,11641,-19.734334,73.297868,7.300161
1.0501829185402314,0.0398224319266732,-0.0282059389562833,0.0010747548638212,-0.0012500330204725,0.0007128144327525,-3.1703966123727084e-07,-2.974623950505e-06,2.3505029155735546e-07,11642,-20.066729,73.249356,6.864709
0.9279271502221724,-0.0118662044726027,-0.0232701634995915,0.0010086356913764,-0.0013877225633086,0.0003164399006561,-3.199229935404503e-07,-2.8012867375355677e-06,7.28115218965042e-08,11643,-20.326123,73.275245,6.474258
0.791562067537664,-0.0674270784494294,-0.0155539224151414,0.0009439717081311,-0.0015400040812617,-9.91492280973448e-05,-3.01579193456013e-07,-2.610551948765781e-06,2.6762257667744753e-08,11644,-20.683506,73.352055,6.004156
0.6679389522870798,-0.1493968938134064,-0.0144212059088567,0.0008684730390018,-0.001693390240875,-0.0005211569714977,-2.781227519476576e-07,-2.438082639713859e-06,2.052403870177632e-08,11645,-21.329611,73.454811,5.326277
0.5761723634691183,-0.2253759198508953,-0.0034233403604374,0.000780314525981,-0.0018342557781977,-0.0009344936470176,-2.764680575951575e-07,-2.2743506965249263e-06,-1.1775788733553465e-07,11646,-22.201949,73.557774,4.505187
0.3783060061950636,-0.2740772316782576,0.0206115921945168,0.0006892538262723,-0.0019476145818274,-0.0013203626812707,-2.9043264740301585e-07,-1.9993562447657343e-06,-4.555906855125253e-07,11647,-23.14419,73.592733,3.636966
0.0439950043370194,-0.383436190352291,-0.0487159175584225,0.0006020780511061,-0.0020092814079518,-0.0016508803502437,-2.882278769230506e-07,-1.4878877029253202e-06,-9.060765786786408e-07,11648,-24.334542,73.464264,2.401642
-0.1982283010693897,-0.5248756192598193,-0.216929238495741,0.000527967961222,-0.0019849983190148,-0.0018870838271652,-2.54359037201559e-07,-7.535074474656614e-07,-1.3415060537330016e-06,11649,-26.519783,73.183456,-0.183299
-0.2407331038522916,-0.6114787640203992,-0.3131596933742274,0.0004722518507996,-0.0018664189915907,-0.0020104257692352,-1.996924183592493e-07,7.309412457450668e-08,-1.686360952648665e-06,11650,-29.322408,73.037915,-3.724911
-0.2648560568277387,-0.7919469073070816,-0.3085110701256996,0.0004345734942497,-0.0016734384186544,-0.0020240383054865,-1.4316766589038354e-07,8.016390379545319e-07,-1.9046859470008224e-06,11651,-31.255342,73.298373,-6.35772
-0.3422022462758658,-1.0920125133413547,-0.3445589586792115,0.0004156098844968,-0.0014386595220633,-0.0019369389379059,-1.0723932192747655e-07,1.161146835514634e-06,-1.962449473193187e-06,11652,-31.642125,73.731443,-7.112339
-0.313932135614838,-1.2664931902306444,-0.4349080723378272,0.0004146895852858,-0.0012217893930556,-0.0017750251589198,-1.1880358041426193e-07,9.144942135373152e-07,-1.876359707573191e-06,11653,-31.067222,73.933109,-6.497025
-0.1766804325749855,-1.3627073861307688,-0.4790507401245678,0.0004301540869876,-0.0010430962324025,-0.0015623350783631,-1.887421173273211e-07,1.3048996482260253e-07,-1.7644299345309348e-06,11654,-30.216376,73.779478,-5.350797
-0.1131180075427384,-1.5844950575553507,-0.4568532121743172,0.000459626241268,-0.0008795496833851,-0.001322633659497,-2.918705661745085e-07,-7.975301047719976e-07,-1.7417906914059177e-06,11655,-29.481019,73.385869,-4.284141
-0.1776329561408312,-1.7481549787237365,-0.3910368124246478,0.0004972859542342,-0.000707238393072,-0.001101587002879,-3.778188518668159e-07,-1.467526931052458e-06,-1.7825056993047496e-06,11656,-28.938786,72.926768,-3.706677
-0.2568109784466931,-1.670676763806736,-0.3049159074081434,0.000533287540629,-0.0004803798466022,-0.0009673769144702,-4.046851244325678e-07,-1.705361431632343e-06,-1.763985716338553e-06,11657,-28.55033,72.634319,-3.768527
-0.296737736233486,-1.536035254813323,-0.2368444603989388,0.0005633998945816,-0.0001837610747454,-0.0009468168731985,-3.6544504924267417e-07,-1.5435705954137583e-06,-1.6221350697304394e-06,11658,-28.302543,72.602474,-4.285926
-0.3643187220098894,-1.4499321289338971,-0.1929514479804191,0.0005889985389253,0.0001612373596898,-0.0010240222472554,-2.869384304404507e-07,-1.157880079471208e-06,-1.3829521262415654e-06,11659,-28.163856,72.747391,-4.809265
-0.4694280251261222,-1.3327843829926915,-0.170269537831584,0.0006119684608355,0.0005371805906459,-0.0011699891604864,-2.0965376604309881e-07,-8.325992478530036e-07,-1.0821914261005504e-06,11660,-28.00707,72.935283,-5.031731
-0.5510989898010487,-1.187549018792145,-0.1450798902537265,0.0006375732843609,0.0009137737892675,-0.001320584112426,-1.648877503063405e-07,-7.905797644151194e-07,-7.571446334626709e-07,11661,-27.598887,73.114634,-4.899373
-0.5878304743609987,-1.0296788874435414,-0.0499118797920765,0.000668093050076,0.0012707649596279,-0.0014491576880576,-1.5672174827996957e-07,-1.0104514474894157e-06,-4.530142826046632e-07,11662,-26.833838,73.302372,-4.449984
-0.604506965268847,-0.8579081034339159,0.1057892051479462,0.000702421570664,0.0016016324758657,-0.0015696801917601,-1.633488349371843e-07,-1.3212290656462125e-06,-1.586552504466359e-07,11663,-25.870985,73.467081,-3.74631
-0.6230733052984716,-0.7122390561099355,0.2170040720045419,0.0007415744944814,0.0018882212493669,-0.001683039727946,-1.6046293519592433e-07,-1.6210155388382925e-06,1.7861292076762457e-07,11664,-24.728842,73.646167,-2.767479
-0.6408074072599416,-0.6091450525247789,0.2499694895610004,0.0007871989720282,0.0021062290213648,-0.0017960744891746,-1.3966355402263677e-07,-1.8875067856608812e-06,5.544876275364063e-07,11665,-23.743847,73.878214,-1.878217
-0.6561461524674104,-0.5228975053750515,0.2707725289818091,0.0008400573135647,0.0022415873730102,-0.0019108150905266,-1.064074366747257e-07,-2.0705829104525326e-06,9.004357665137655e-07,11666,-23.139266,74.131697,-1.334381
-0.6553555422850772,-0.3877862609176941,0.3040400585646209,0.0009005706276268,0.0022884809549145,-0.0020191126311319,-6.98223848260952e-08,-2.1218991436927158e-06,1.173405382651402e-06,11667,-22.790755,74.394477,-1.067746
-0.6380752260705962,-0.1559252482170025,0.328501414819132,0.0009685027093598,0.0022458965262374,-0.0021221176287212,-3.829882969551558e-08,-2.0885033866573003e-06,1.3924200712211028e-06,11668,-22.679421,74.692513,-1.09826
-0.6292296136277273,0.0813451128028387,0.3463495494273914,0.001042620965682,0.0021225158101297,-0.0022269637101004,-1.963853052314788e-08,-2.0700414867746697e-06,1.5708894445953544e-06,11669,-22.60885,75.037046,-1.181528
-0.6296602258547425,0.18151527212797,0.3418890497466296,0.0011228104167678,0.0019232515839389,-0.0023429044948987,-1.5863107623892476e-08,-2.124228677068408e-06,1.6998622701555052e-06,11670,-22.32865,75.417049,-0.992914
-0.6448851294926771,0.195616722255015,0.3006740003673309,0.0012100335036565,0.0016502801293727,-0.002485251620523,-2.2183858177392813e-08,-2.2961722237764127e-06,1.80755487778326e-06,11671,-22.061094,75.765388,-0.711189
-0.636471238362776,0.288444014647298,0.2710172887372126,0.001305058017053,0.0013151416307444,-0.0026769402821458,-3.4923022956412226e-08,-2.624154822215309e-06,1.929169858485342e-06,11672,-22.022105,76.002961,-0.581549
-0.5962618772412025,0.447757573768854,0.2991574184276401,0.0014089902357679,0.0009376321624166,-0.0029511018888856,-4.95123883180348e-08,-3.001421427976394e-06,2.0362237325343586e-06,11673,-22.293621,76.165909,-0.752382
-0.7347564681523417,0.5487322939765675,0.3777034245268206,0.0015222436166023,0.0005285229741003,-0.0033112366898172,-5.3809874058659576e-08,-3.1626820016217515e-06,2.0630089767716364e-06,11674,-22.850741,76.319557,-1.257972
-1.1315547524162195,0.5726198509161391,0.4600536947309653,0.0016443374209053,9.07258200671438e-05,-0.0037274307158457,-3.274780630554435e-08,-2.918673175226696e-06,1.999680594821546e-06,11675,-24.40355,76.450886,-2.955046
-1.4490188571920748,0.5615790987801246,0.4945417725611848,0.0017747052202605,-0.0003722230963757,-0.0041544143549323,1.5113882156027642e-08,-2.3386056759377937e-06,1.8975662212541093e-06,11676,-26.915747,76.772982,-5.789686
-1.448044582837137,0.519095094914504,0.5263851475860813,0.0019122884020392,-0.0008604270115507,-0.0045147466310888,7.010763684556007e-08,-1.63306795282476e-06,1.7637186756490725e-06,11677,-29.054059,77.547554,-8.089022
-1.323148349688647,0.4632331420499415,0.6491635544866412,0.0020556892734583,-0.0013621737674584,-0.0047589207271154,1.1186284514466323e-07,-9.334847736473792e-07,1.550998867125459e-06,11678,-31.504922,78.647615,-10.258695
-1.2748247258971586,0.4386726779752787,0.7987397530745768,0.0022030877232152,-0.001851502203941,-0.0048661078311554,1.3263817838516013e-07,-2.769292301113996e-07,1.2303092200473471e-06,11679,-35.179202,79.588496,-13.453746
-1.1901218131781246,0.4370425421266558,0.8293783629903227,0.0023516142014742,-0.00229693231101,-0.0047985335139458,1.3547963519101238e-07,3.017048052179828e-07,8.33316418017033e-07,11680,-39.747925,80.027803,-17.68411
-0.917735806735925,0.4405815067910794,0.7575181528818935,0.0024971057514038,-0.0026546338616975,-0.0045149488588695,1.3594043587666028e-07,7.634822956601387e-07,4.593029021185904e-07,11681,-44.265085,80.015432,-22.117466
-0.5687975921931536,0.4436303446408549,0.6897774568823527,0.0026369390675285,-0.0029004694035119,-0.0040176117467325,1.4495626715048364e-07,1.107199774991676e-06,1.7065203385750574e-07,11682,-47.609419,79.82636,-25.679563
-0.3559060882722344,0.3852644433600359,0.6377771585999878,0.0027700048087128,-0.0030323507665524,-0.0033556490280485,1.518207855148242e-07,1.350468421295533e-06,-7.772990081265613e-08,11683,-49.40989,79.596082,-28.038235
-0.2820426785137522,0.2727217872783877,0.5855190177613171,0.0028950749861647,-0.0030501594703832,-0.0026206987209091,1.3373822408460474e-07,1.4313038506242565e-06,-3.59302560977716e-07,11684,-50.193133,79.291738,-29.525904
-0.2076712311160518,0.1826121007308274,0.5384481667326535,0.0030115726878224,-0.002966466818222,-0.001972049122124,7.647010594605244e-08,1.2453043058986863e-06,-6.992517960866761e-07,11685,-50.631091,78.850479,-30.453329
-0.0840713990001175,0.0446618678544839,0.457536637215463,0.0031175178423844,-0.0027892959322149,-0.0014823410320784,-1.0662028272132092e-08,8.488894201116129e-07,-1.0793217431186411e-06,11686,-51.07631,78.278232,-31.082113
0.0758285588748488,-0.2031762899938143,0.3386415112251699,0.0032092164370244,-0.0025217821196052,-0.0011339631227933,-1.066008439971964e-07,4.63710269645987e-07,-1.4974648848232643e-06,11687,-51.568705,77.648651,-31.659397
0.2185854607729059,-0.3959550030752157,0.2524626821267208,0.0032826724760266,-0.00218146840424,-0.0009143534986523,-1.9285918710660752e-07,2.358989915221526e-07,-1.923653501228932e-06,11688,-52.050669,77.097415,-32.311224
0.2445713743580205,-0.4229726861030194,0.2206023895646232,0.00333278797513,-0.0017986638267323,-0.0007714817540564,-2.487711347342888e-07,1.2604733087817554e-07,-2.2181064727903933e-06,11689,-52.306315,76.752823,-32.926547
0.192487693462325,-0.402957444729299,0.1953044151923031,0.0033562593046542,-0.0013887416425804,-0.0006963932718588,-2.612158428134764e-07,6.183730929259098e-08,-2.274446143434198e-06,11690,-52.226988,76.579101,-33.33339
0.1926318905803334,-0.4072020597217985,0.1585066746162525,0.0033518639641433,-0.0009538528233088,-0.0007334210976853,-2.383473429230418e-07,7.004374491063845e-08,-2.1589272700064025e-06,11691,-52.004756,76.459144,-33.580753
0.2421349852094427,-0.385835394624784,0.1322527591352414,0.0033185188123275,-0.0004960854871187,-0.0009058785339527,-1.9691362749076465e-07,1.856871663061005e-07,-1.980467181745994e-06,11692,-51.829157,76.350625,-33.827967
0.264606108546883,-0.3253030794126873,0.1237435412023894,0.003256274246962,-1.032259274788127e-05,-0.0012392641948784,-1.4299752707860108e-07,3.632768207077989e-07,-1.744893163719661e-06,11693,-51.649593,76.311307,-34.053595
0.2434513225517669,-0.2392179614777868,0.1271108021457854,0.0031648821983488,0.000492770335159,-0.0017279384378783,-7.41550650904574e-08,6.069152470615878e-07,-1.441848742787124e-06,11694,-51.45057,76.390011,-34.283464
0.2096990388280716,-0.1627611022797825,0.1389311836015408,0.0030437697783677,0.0009838103701075,-0.0023211774978571,6.948942697005353e-09,1.0383881676416017e-06,-1.1504830351848093e-06,11695,-51.483643,76.560357,-34.76035
0.1816582332561856,-0.1212695605592027,0.1723129135262837,0.0028937705186034,0.0014292735118072,-0.0029496874811436,9.607172641997397e-08,1.6910280138622093e-06,-9.096181313537704e-07,11696,-51.971738,76.822072,-35.668622
0.1510313027931135,-0.0541454344791757,0.2458352531479842,0.0027170382236606,0.0017826205778357,-0.0035051833186535,1.978425391644505e-07,2.43011583536321e-06,-6.272002518798614e-07,11697,-52.89967,77.17394,-36.935161
0.115625549142186,0.0573615314968086,0.3393225486209188,0.0025138292061731,0.0020181018190235,-0.0039326510043159,3.201708894234636e-07,3.172406734012125e-06,-2.333617389060479e-07,11698,-54.136241,77.634582,-38.377796
0.0821404562351052,0.1355933628439481,0.4177587795564475,0.002282579899829,0.0021338223597604,-0.0042360145857733,4.6361120646044434e-07,3.99225428186466e-06,2.2745231434373237e-07,11699,-55.529582,78.182901,-39.879807
0.0166354758085086,0.1741789558515348,0.4623611503394756,0.0020214127316881,0.0021293916096567,-0.0044168956918013,6.186332281542237e-07,4.956387009819254e-06,6.867516255389264e-07,11700,-57.045054,78.75597,-41.488282
-0.1411745174060209,0.239271394952628,0.4689439097578858,0.0017271775048851,0.0020173627185542,-0.0045031220416993,7.705028712998576e-07,5.99815528147122e-06,1.1054295383953751e-06,11701,-58.72651,79.323895,-43.270701
-0.3245415153132795,0.3191599378610392,0.4546183169150014,0.001397800053431,0.001806250260564,-0.0044911415679424,9.10007694540472e-07,7.065479300276668e-06,1.4392954044012543e-06,11702,-60.763453,79.86993,-45.387454
-0.485025123891032,0.3363008257875154,0.4320956734329231,0.0010323783924503,0.0015000890933528,-0.0043388314449088,1.0442806813778671e-06,8.2304631080135e-06,1.6898485592805356e-06,11703,-62.990536,80.363619,-47.722409
-0.81402931775,0.3065571065299067,0.3961731010645376,0.0006292117218525,0.0011183917330804,-0.0040152544854008,1.1898885080240554e-06,9.501504844879876e-06,1.95461949421694e-06,11704,-64.953209,80.765416,-49.940676
-1.2949895593172889,0.3913847613648941,0.3370953548097264,0.000186322215381,0.0006947831689413,-0.0034835781516426,1.3495577083399163e-06,1.0765875397531656e-05,2.283000747915503e-06,11705,-66.554304,81.06991,-52.012714
-1.5299390414617742,0.6664807805709271,0.2571949341730342,-0.0002953825326039,0.000245793983996,-0.0027241788280111,1.508489754226975e-06,1.1969460290920406e-05,2.595242249767508e-06,11706,-69.43429,81.304276,-55.255379
-1.4205201906619709,0.9314272902189228,0.1745413415821911,-0.0008117923210521,-0.0002275063273383,-0.001742295812984,1.6468970361165722e-06,1.3073949185704978e-05,2.8164637869213573e-06,11707,-74.221136,81.561521,-60.037875
-1.2918982456054144,0.9790700491918144,0.0577422447613101,-0.0013561724157664,-0.0007245219514446,-0.0005463872913466,1.7395181217771426e-06,1.387762493164503e-05,2.9337305741533868e-06,11708,-79.788935,81.795038,-65.268701
-1.2677864078251193,0.8876447086576806,-0.1687951092445437,-0.0019174875847548,-0.0012534081713196,0.0008409443123544,1.7597764610890656e-06,1.4103909071584106e-05,2.9284432868835294e-06,11709,-82.962442,81.8677,-68.064298
-1.230146964508601,0.8197577644404734,-0.4581992858911206,-0.0024815104965199,-0.0018059999425991,0.0023836283195032,1.699207512638652e-06,1.3627289519363756e-05,2.7957145699455784e-06,11710,-80.934811,81.781926,-65.784052
-1.1691181522901846,0.7763076729435134,-0.6340198485941051,-0.0030293221674628,-0.0023549091070984,0.0040288532468684,1.5731959939800777e-06,1.251269830464593e-05,2.6001927832275985e-06,11711,-75.005343,81.537684,-59.514347
-1.088515038819772,0.7010148411567517,-0.6694875731635681,-0.003533339790658,-0.0028703049403155,0.005690236709786,1.4031359922454454e-06,1.0931234083856754e-05,2.382699785050149e-06,11712,-68.974104,81.092652,-52.762634
-0.918256570448122,0.6110104148854253,-0.727727484916673,-0.0039548753669807,-0.0033108664783314,0.007238549863237,1.2022198604746611e-06,9.105657259880658e-06,2.073163431995109e-06,11713,-65.382646,80.518722,-47.976986
-0.6289124695090591,0.5434665144711788,-0.8777659161459509,-0.0042755851971361,-0.0036535428311091,0.0086044665719837,9.809830698524865e-07,7.247434288411843e-06,1.6100472382281118e-06,11714,-63.847369,79.865612,-44.94227
-0.3314013262568776,0.4842360207777639,-1.0804121233171688,-0.0044988640812354,-0.0038966616557358,0.0097799467973072,7.511696755617581e-07,5.471285910700963e-06,1.0473244927815982e-06,11715,-62.108336,79.070293,-41.901012
-0.1819624145115658,0.4099542975469236,-1.3059556426114345,-0.0046337318699294,-0.0040393567974256,0.0107610816784952,5.17832443225957e-07,3.755897852104816e-06,4.839412998642225e-07,11716,-59.072205,78.005099,-38.168128
-0.0179835513322574,0.3270537008928901,-1.462337264856575,-0.0047058129589518,-0.0040917047056655,0.0115790891810475,2.80558784268566e-07,2.007351164793128e-06,-7.593552705228941e-09,11717,-55.03855,76.715443,-34.006264
0.4175377114653028,0.2172306572963322,-1.4582994358114263,-0.004725464844636,-0.0040605786783751,0.0122321023208655,4.026085868465816e-08,1.3681517103719897e-07,-3.7213623132514533e-07,11718,-50.735438,75.391714,-29.755589
0.8916897016090948,0.0674416486983324,-1.3507134055804484,-0.0046865466729375,-0.0039491275443962,0.0126801036086966,-2.085740708055931e-07,-1.925107890684619e-06,-6.058174286139489e-07,11719,-46.571764,74.186399,-25.459469
1.031588420443962,-0.0322886977766339,-1.2545785938684064,-0.0045916826175312,-0.0037739755918974,0.0129036918326135,-4.80246290061684e-07,-4.1918147820658245e-06,-8.031314642827157e-07,11720,-42.897964,73.031601,-21.300375
0.9270000459983092,0.0116006029635101,-1.183371014476586,-0.0044446915984626,-0.0035641498323962,0.0128872381436343,-7.803344014963511e-07,-6.582134136323735e-06,-1.0830526928800253e-06,11721,-40.061937,71.742009,-17.721283
0.8343553730515328,0.1185005104814887,-1.0856719518927698,-0.0042495971841783,-0.0033318350668557,0.0126168387122741,-1.0948200328036186e-06,-8.922517401372635e-06,-1.4903874475404778e-06,11722,-38.038742,70.341473,-14.932534
0.7767027126660757,0.1257659303676811,-0.9376468935596144,-0.0040135819107154,-0.0030734080400692,0.0120877712782794,-1.3977470907208355e-06,-1.1006522790064454e-05,-1.988374570448853e-06,11723,-36.578795,68.97776,-12.774404
0.7138819191471591,0.0183499680559652,-0.7416861796011855,-0.0037426260534936,-0.0027831273530446,0.0112951581611856,-1.664268503980132e-06,-1.2725375222421174e-05,-2.4901695405425614e-06,11724,-35.378874,67.799053,-11.015294
0.6348185724082422,-0.0784702883841388,-0.544337782825082,-0.0034422928134135,-0.002444749815449,0.0102367901458274,-1.8757226417456956e-06,-1.407156615932997e-05,-2.898966596634643e-06,11725,-34.384985,66.797417,-9.659891
0.5082676771909651,-0.1080798456836676,-0.4091539774905959,-0.0031251089761506,-0.0020535771898395,0.0089302383077648,-2.0213457986074483e-06,-1.503164133324575e-05,-3.1524051989789982e-06,11726,-33.751867,65.885617,-8.749262
0.3761428814003745,-0.1333749639567895,-0.3289842521378427,-0.0028113181727423,-0.0016179053280943,0.0074162022579596,-2.107813604934841e-06,-1.5631612351400896e-05,-3.2527813735888544e-06,11727,-33.391893,65.042368,-8.165472
0.2791670952890513,-0.1765060800195564,-0.2607147126878749,-0.002527692615136,-0.0011418244751835,0.0057586630102827,-2.1604529860211413e-06,-1.602040842669532e-05,-3.264778525148987e-06,11728,-33.075575,64.288552,-7.807288
0.1233012412423925,-0.2009118378851461,-0.1966644783877749,-0.0023115192455009,-0.0006311530274841,0.0040568036213495,-2.205812414250796e-06,-1.6348892994826593e-05,-3.281513175843828e-06,11729,-32.670983,63.682327,-7.550348
-0.1394990882824982,-0.2049500640697202,-0.1426758654253955,-0.0021812236605424,-9.041700527876698e-05,0.0023652073184076,-2.2511739254138763e-06,-1.6576217345646077e-05,-3.375301723073765e-06,11730,-32.20543,63.277959,-7.321048
-0.3540321379614473,-0.2017918521203586,-0.101417530669399,-0.002134626801198,0.0004788903902532,0.0006922040021095,-2.276110595300994e-06,-1.650024611149619e-05,-3.539453884819489e-06,11731,-31.797146,63.112484,-7.109488
-0.4109541819241489,-0.2007117920158445,-0.0717795216621055,-0.002165148241589,0.0010723495208413,-0.0009513176108896,-2.242338217428303e-06,-1.5947490753878875e-05,-3.6786094038435463e-06,11732,-31.779682,63.230077,-7.115106
-0.3982581943095158,-0.1992693219121653,-0.0117413902429503,-0.0022515597931662,0.0016835822616815,-0.002574872252617,-2.1144416583500564e-06,-1.4836735707309152e-05,-3.6634729456945536e-06,11733,-32.538884,63.581922,-7.851989
-0.4258644325806886,-0.2148245144726394,0.1098205992821906,-0.0023737144210147,0.0023055093791869,-0.004155985423829,-1.8856280174909143e-06,-1.3207130060935269e-05,-3.3997124136668977e-06,11734,-33.664403,64.244823,-9.284966
-0.5715451217027299,-0.3339092805285153,0.2258389993910889,-0.0025113455529473,0.0029291116283601,-0.0056330300031766,-1.59323007715156e-06,-1.1306889379124527e-05,-2.901052033289281e-06,11735,-34.462117,65.318928,-10.725886
-0.778453428405657,-0.5582294300606133,0.2748708521907686,-0.0026243999641638,0.0035428435771504,-0.0069460108209222,-1.3020214765485571e-06,-9.513219175688265e-06,-2.3139286477665917e-06,11736,-34.995119,66.69863,-11.730513
-0.7904692175756887,-0.7323497432794713,0.2976434398171265,-0.0026522515039877,0.004131805632025,-0.0080187245328902,-1.0712551875679356e-06,-8.10931928228447e-06,-1.839155611737037e-06,11737,-35.775116,68.064498,-12.295972
-0.5560358345828611,-0.7600685199101012,0.3254061749474496,-0.0025688031250226,0.0046860820423091,-0.0088268993428618,-9.272895005297112e-07,-7.137052877592673e-06,-1.6068567551302535e-06,11738,-37.167318,69.245647,-12.760075
-0.3374960229129339,-0.6582152746921693,0.3454218457561409,-0.0023830940189095,0.0052010114017623,-0.0094097664615942,-8.471187485140617e-07,-6.380370747406215e-06,-1.599692240332304e-06,11739,-38.826255,70.226774,-13.29011
-0.2232105542163209,-0.4713328741959853,0.3726123409950955,-0.0021129605954848,0.0056724443488184,-0.0098307458471493,-7.666358683157064e-07,-5.501450562389558e-06,-1.6581737833809416e-06,11740,-40.438481,71.023343,-14.062597
-0.0876726244125827,-0.3257824010542689,0.4051332443952495,-0.0018031697976328,0.0060993823628606,-0.0102080454618867,-6.187431630307624e-07,-4.256291075645745e-06,-1.5498800821740809e-06,11741,-41.864827,71.746281,-15.306414
0.0586884239012011,-0.3232882612717842,0.4299892475136703,-0.0014892759284202,0.0064770867927743,-0.0105853064301244,-3.808515532782953e-07,-2.6238075476625358e-06,-1.1237298831089475e-06,11742,-43.227719,72.589726,-17.210361
0.1450596680114177,-0.3715169937606132,0.4869319964595169,-0.0011988196924752,0.0067965052023598,-0.0109237761218759,-8.432511190095546e-08,-7.481515233610102e-07,-4.384227322929334e-07,11743,-44.561996,73.635071,-19.496513
0.1802517823656609,-0.3464918796389203,0.5806233744081472,-0.0009884850648752,0.0070496574324542,-0.0111886203899338,2.265988242719078e-07,1.221060306649468e-06,3.329324375944361e-07,11744,-45.791733,74.791852,-21.611592
0.1662799114054434,-0.2576846146234223,0.6454387682082416,-0.0009413135437683,0.0072276622093272,-0.0113092531740729,5.220968051892299e-07,3.1670943286829096e-06,1.0558256384914262e-06,11745,-47.238128,75.93557,-23.540685
0.1223996777491692,-0.1639959241741908,0.6689942979598407,-0.0010763920840192,0.0073219416833306,-0.011259564155828,7.812647341010883e-07,4.971350525320443e-06,1.652475455808913e-06,11746,-49.218884,76.997792,-25.597759
0.0931247545600419,-0.1057090560227165,0.6934098515167499,-0.001345339092094,0.0073246702918087,-0.0110684116416597,9.986216252508768e-07,6.568248207971134e-06,2.1269624464327776e-06,11747,-51.770801,78.07459,-28.006722
0.0793458189384222,-0.0818793390750031,0.7354621599340565,-0.0016683106578442,0.007226538664531,-0.0107508370230498,1.1936873372405737e-06,7.970570152632988e-06,2.5969671817481077e-06,11748,-55.063359,79.249183,-31.021083
0.0247002115018726,-0.0469412231955425,0.8285340170886412,-0.0018990536339625,0.0070169517143056,-0.0103325050121107,1.389127774492336e-06,9.222076676759974e-06,3.1732865908225757e-06,11749,-59.318878,80.444801,-34.867118
-0.1430048459289757,-0.0045483217913632,0.982210073612018,-0.0019874747704559,0.0066838880660721,-0.009816263588927,1.58293079091163e-06,1.0374761921809008e-05,3.818247294268896e-06,11750,-64.66516,81.577926,-39.660127
-0.3620986221518988,0.0070948806706505,1.0912778597305577,-0.0019887096812811,0.0062130884749352,-0.0091722858942589,1.7648564073024945e-06,1.1472056292752792e-05,4.445439740158221e-06,11751,-70.748096,82.59392,-45.15534
-0.4855565325553925,0.0221892640202771,1.0816566715091822,-0.0019597958117756,0.0055875277177229,-0.0083704531454769,1.939312469745884e-06,1.252175364117954e-05,5.058165355782251e-06,11752,-77.246033,83.433637,-51.192402
-0.5210238647088739,0.0831122119413318,1.017443567424082,-0.0020107068559696,0.0047863371447053,-0.0073661449141834,2.103511286710337e-06,1.3451763103485096e-05,5.660243153355031e-06,11753,-83.593176,84.071866,-57.343267
-0.5637561686573787,0.1726177254401137,0.9625961350482238,-0.0021803801210039,0.0038010476910644,-0.0061414333013338,2.2411843684291813e-06,1.4145975859306009e-05,6.208233345448523e-06,11754,-88.979583,84.506603,-62.779767
-0.6858238170422983,0.2755963749397296,0.9071607609699212,-0.0024226633628328,0.0026372562065422,-0.0047110649131308,2.347610179914593e-06,1.459853124843226e-05,6.680171912297117e-06,11755,-93.50846,84.783845,-67.315396
-0.9623495219812236,0.3837048937824204,0.8399952827824787,-0.0027038171726293,0.0013075294345788,-0.0030928987474414,2.431517283685997e-06,1.490252931836861e-05,7.081267933261912e-06,11756,-96.932031,84.977474,-70.561632
-1.3121547826277826,0.4518845165882827,0.7637561113631276,-0.0029636107987452,-0.000161519345666,-0.0013232338541836,2.500669667230696e-06,1.510882757174403e-05,7.412384240344101e-06,11757,-98.486624,85.101992,-71.903228
-1.5229783146143503,0.4511586403711328,0.6766093518102835,-0.0031701093318865,-0.0017361044780867,0.0005622051513592,2.5479304269801906e-06,1.5217191973839486e-05,7.604633228925176e-06,11758,-99.233229,85.116276,-72.366552
-1.556119926282929,0.4244308873455802,0.6029510376392073,-0.0033303179123312,-0.0033715851651963,0.0025276586177801,2.553990682914612e-06,1.5179623599098076e-05,7.553002969574458e-06,11759,-101.185523,84.985144,-73.748823
-1.5076313593773762,0.3943517319286884,0.4949998967232826,-0.0034329340400261,-0.0049975141747762,0.0045106372288024,2.5005322319085616e-06,1.4862676669968508e-05,7.22254047837493e-06,11760,-103.083475,84.716234,-74.791862
-1.4205834263235235,0.3212723412549583,0.1888740917008773,-0.0034645819263115,-0.0065117493875382,0.006420717485582,2.3660244293950294e-06,1.4090360851748072e-05,6.599039769231654e-06,11761,-101.158141,84.249451,-71.938212
-1.3199879953510392,0.2267488640474727,-0.2888031175478439,-0.0034167667030362,-0.0078492677207127,0.0082053521339292,2.135848877861605e-06,1.280698304826337e-05,5.64483519929541e-06,11762,-93.548041,83.466368,-63.591689
-1.1701962578141711,0.1829076864052528,-0.6516639734703675,-0.0032801504476527,-0.0089814986368863,0.0098488432117039,1.82170583917018e-06,1.1176882827900235e-05,4.358230374417081e-06,11763,-83.903493,82.27313,-53.367208
-0.9339944678647452,0.1519421764274492,-0.8102617134803831,-0.003053990504471,-0.0098763182579043,0.0113388450344462,1.450532870078617e-06,9.379103400983267e-06,2.829094406497016e-06,11764,-76.606991,80.738494,-45.311676
-0.7203845505162076,0.0271416530645604,-0.9822029483512856,-0.0027474793269671,-0.0105165807385369,0.0126855004201016,1.0470215131583347e-06,7.424724731101338e-06,1.2284319226147851e-06,11765,-72.266565,79.135896,-39.947543
-0.5245965906132577,-0.1572776583724563,-1.2397249980029623,-0.0023679511894121,-0.010895493364514,0.0138738821953637,6.271066942028788e-07,5.289011068677377e-06,-3.226193824600511e-07,11766,-69.145654,77.572171,-35.825502
-0.1898528613894463,-0.2627903154980826,-1.4063186481771768,-0.001923801199604,-0.0110178783563143,0.0148603503217798,1.9695960066244881e-07,3.00445379706957e-06,-1.7984592024245003e-06,11767,-65.739346,75.904144,-31.702351
0.185486061198024,-0.2860563643463589,-1.4020802987833876,-0.0014334243597982,-0.0109226809682797,0.0156104237422114,-2.40976638412429e-07,5.970653425038863e-07,-3.1704629722625085e-06,11768,-61.980624,74.079628,-27.461189
0.4130869916885287,-0.3366873166076693,-1.317374254847083,-0.0009256314673753,-0.0106904214153964,0.0160857543276822,-6.821257008295798e-07,-1.896063208374624e-06,-4.409780590944474e-06,11769,-58.424868,72.161704,-23.532876
0.6055545389432905,-0.4327155414271713,-1.23114613547592,-0.0004166233295555,-0.0103487182658715,0.0162570220546596,-1.1148173137893372e-06,-4.37052278874709e-06,-5.516025169210521e-06,11770,-55.380817,70.245362,-20.181672
0.8642038540983821,-0.508495669690972,-1.155316835249316,8.949334584123906e-05,-0.0098727985110961,0.0161090206188341,-1.5191710773445652e-06,-6.731279142700013e-06,-6.4520851162736605e-06,11771,-52.659472,68.442246,-17.276382
1.0248904828581695,-0.5317154997756118,-1.0834229355983804,0.0005882638747456,-0.0092384534226692,0.0156259252328884,-1.88199100685322e-06,-9.006933243556779e-06,-7.154460895320057e-06,11772,-50.025803,66.718116,-14.707463
1.008795632601346,-0.5116122570995172,-1.0154798664627744,0.001081169934895,-0.0083954194495125,0.0147971790865788,-2.207427269040393e-06,-1.126134912096567e-05,-7.636360853178325e-06,11773,-47.731148,65.033502,-12.597315
0.9378494424027216,-0.4944974610537763,-0.9390929185757876,0.0015566977989691,-0.0073336525134404,0.0136192929450188,-2.5001382887801893e-06,-1.3416457238087207e-05,-7.984882364361034e-06,11774,-45.983564,63.458307,-10.921038
0.8822933106564675,-0.5244438596611702,-0.8234606003941671,0.0019877344174777,-0.0060913201043125,0.0120967097601184,-2.7565346952244493e-06,-1.5319065691049693e-05,-8.267595638639327e-06,11775,-44.660263,62.125062,-9.494692
0.8405504646507032,-0.5505659102208722,-0.6594795125261739,0.0023439641035296,-0.0047050648546333,0.0102490732708294,-2.979038883796865e-06,-1.690831070653907e-05,-8.528378041341717e-06,11776,-43.558917,61.085619,-8.248334
0.8014054194195273,-0.5216201776352682,-0.5047053248590834,0.0025845167758993,-0.0032321909959869,0.0081157320818932,-3.1703466717409653e-06,-1.81588021515304e-05,-8.798327179717482e-06,11777,-42.609236,60.327345,-7.175016
0.6864413063986,-0.5019984140817775,-0.4150349158042429,0.0026861718873437,-0.0017018121613344,0.0057263225755521,-3.317463042322429e-06,-1.899954867460444e-05,-9.037528607225536e-06,11778,-41.874933,59.82147,-6.26215
0.4933365476923883,-0.5326493956936578,-0.3405782182310101,0.0026460707091001,-0.0001080878615864,0.0031037197085723,-3.4025746684562664e-06,-1.944133712606885e-05,-9.144493549339331e-06,11779,-41.34076,59.521144,-5.520469
0.3767276506006651,-0.538296266503092,-0.2305180113175011,0.0024632617887648,0.0015495686038293,0.0002859937830047,-3.412429490920616e-06,-1.9569856863807e-05,-9.03749103950424e-06,11780,-40.913323,59.434376,-4.963101
0.3616754306479801,-0.4747540462526249,-0.1380786216111016,0.0021484734078062,0.0032823392004186,-0.0026770115070365,-3.322747488371453e-06,-1.9266938501251426e-05,-8.682676352260727e-06,11781,-40.538965,59.642479,-4.588391
0.3142332641377366,-0.4064128158050719,-0.0913295166452929,0.0017101214680751,0.0050654169358997,-0.0056945979299221,-3.097584468156479e-06,-1.8212916951645928e-05,-8.051935656358166e-06,11782,-40.427848,60.180349,-4.70616
0.150729926446238,-0.3875780642635959,-0.0488569225741849,0.0011543592351276,0.0068286141534309,-0.0086222642320951,-2.7271310386616063e-06,-1.6271445960642483e-05,-7.138058525153827e-06,11783,-40.780328,61.213563,-5.729435
-0.2039761156966568,-0.4439293160584937,0.011499924385067,0.0005023742678743,0.0084857237373421,-0.0112640017064223,-2.258796165664465e-06,-1.36756689929433e-05,-6.051167075828331e-06,11784,-41.667534,62.898914,-7.564522
-0.7058227240637984,-0.5555929805229719,0.1350657704775689,-0.0002100027320628,0.0099130360700378,-0.0133457725670925,-1.7771168968832984e-06,-1.0859925629584258e-05,-4.990530540436175e-06,11785,-43.121651,65.163334,-9.562663
-0.9934932516674206,-0.5733137446370745,0.3636319841757747,-0.0008988893235224,0.0110411683416331,-0.014745928432933,-1.3590192779565623e-06,-8.257939048490874e-06,-4.105272786029242e-06,11786,-45.089509,67.797212,-11.012388
-0.7846885924508736,-0.393799132651922,0.5959832047938431,-0.001417677886206,0.0118614111862051,-0.015510159074257,-1.0460192960838829e-06,-6.21475148162803e-06,-3.4286104835211147e-06,11787,-47.495708,70.522449,-11.735229
-0.294539560845092,-0.0444208348375264,0.699591866544633,-0.0015569828233083,0.0123653059849933,-0.0157292906292098,-8.257598774850854e-07,-4.826966516855801e-06,-2.871069871376772e-06,11788,-49.843816,73.007636,-12.0348
0.1539143240248919,0.3695331727032752,0.7041170211939977,-0.0010133633406621,0.0125739071203929,-0.0156228447774564,-6.29736200114225e-07,-3.7766904770650753e-06,-2.2535978269645726e-06,11789,-51.764817,74.987175,-12.478411
0.4788035497314603,0.5989362341543314,0.7054552816553162,0.0002558257809597,0.0125203008081816,-0.0153016918187959,-3.751136517466305e-07,-2.5475939882076355e-06,-1.3949739463838636e-06,11790,-53.498919,76.460358,-13.787722
0.636076261162758,0.5065151479947463,0.7244430320256946,0.0019991346549423,0.012251962109782,-0.0147605822827678,-2.3395910523451503e-08,-8.337070295758214e-07,-2.253708740421547e-07,11791,-55.142015,77.752121,-16.169196
0.6120196261875712,0.3268914754695389,0.753156693456304,0.0038442158997387,0.0118492511565739,-0.0140709998745353,3.985652308404805e-07,1.3206307029523715e-06,1.151394395124603e-06,11792,-56.644995,79.178629,-19.131626
0.5244923370947743,0.3221646871620076,0.7854661828019589,0.0051519193139921,0.0114302079266259,-0.0133282632359041,8.330407492950188e-07,3.675334018554432e-06,2.545417111060772e-06,11793,-58.693388,80.702413,-22.637975
0.4720830373843396,0.4252636367271603,0.808414120739619,0.0056593467758971,0.0110491908042247,-0.0125856447026614,1.241202140867111e-06,6.037167620905886e-06,3.823024001747203e-06,11794,-61.760887,82.123715,-26.759473
0.4387165511877734,0.4961262327956603,0.834695408169549,0.0055183073232243,0.0106926315259305,-0.0118711230704381,1.610989925336661e-06,8.293732500406949e-06,4.9538061007342425e-06,11795,-65.979247,83.3583,-31.613379
0.395776825054128,0.5688601170455083,0.8814433293671211,0.0048769883128352,0.0103286291255755,-0.0111806516786635,1.932755443835072e-06,1.029053779670744e-05,5.953381105011045e-06,11796,-72.031101,84.45026,-38.257443
0.3559111856367201,0.6565441779117742,0.9260444839290934,0.0040805511559239,0.0098715642976751,-0.0104593559046396,2.19543670981955e-06,1.1901256178399356e-05,6.81558157488666e-06,11797,-81.074254,85.391507,-48.207897
0.3051690629520306,0.6968387845876649,0.930470021909778,0.0032998151020245,0.009277051581559,-0.0096825408773507,2.4010580040290417e-06,1.3134712819079316e-05,7.541752728020839e-06,11798,-94.188039,86.160905,-61.90892
0.1857244950421532,0.6716335830002775,0.8930509511989753,0.0024937977075681,0.00854365186408,-0.0088494823968101,2.5596417409827465e-06,1.4013749892236865e-05,8.19050718570601e-06,11799,-111.802751,86.717774,-79.115995
-0.0233971528444807,0.6206694882428582,0.8355699645432353,0.0017583471605267,0.007632983087203,-0.0079227474533003,2.6786472999668477e-06,1.4505160693917897e-05,8.842645965758268e-06,11800,-132.06342,87.030088,-98.563436
-0.230024068230625,0.5900865133276301,0.7710199840688411,0.0012355416238964,0.006488760960263,-0.0068395156970486,2.773278870989502e-06,1.4699454320980004e-05,9.529219307975722e-06,11801,-151.685956,87.033247,-117.774476
-0.3937381476368407,0.5917429467657775,0.7138764620980264,0.0009572650113827,0.0050891069654337,-0.0055756217374823,2.8681662866004043e-06,1.4882155068765433e-05,1.0194748846719386e-05,11802,-167.688308,86.807686,-133.703262
-0.6611198661563358,0.6083757353190811,0.6573464640016857,0.0008702079485711,0.0034412681847707,-0.0041417825562617,2.972111062947233e-06,1.526386562115847e-05,1.0732979666255889e-05,11803,-178.431593,86.553286,-144.510155
-1.0664652933096876,0.5934952991092437,0.584750590975812,0.000835397759075,0.0015713005081269,-0.0025597672631105,3.0670627281067127e-06,1.5803979629954773e-05,1.1044993209997634e-05,11804,178.161833,86.46346,-148.248576
-1.386268485288792,0.5963227943854379,0.5150516576857067,0.0005747309640647,-0.000458908705677,-0.0008816729279217,3.134857158497394e-06,1.640694909244699e-05,1.1082823876312694e-05,11805,-176.582037,86.626996,-143.669861
-1.5204433711852323,0.7363679430718342,0.4513166686525506,7.481171765616208e-06,-0.002597097998855,0.0008666783064293,3.1728477999117808e-06,1.701695074822505e-05,1.088297648812966e-05,11806,-164.288728,86.850221,-132.156459
-1.6229925099605116,0.9221519492011356,0.3805019384326735,-0.0007404739390268,-0.004795741135135,0.0026868206294819,3.1720299936154746e-06,1.742639471640199e-05,1.0532882520445652e-05,11807,-152.580719,86.824223,-120.755588
-1.7220492775374552,0.9620014996463904,0.3009332745156411,-0.0015347048428133,-0.0069688456485025,0.0045631612412443,3.1080145051487154e-06,1.7292054799352356e-05,1.0072693880318462e-05,11808,-147.24951,86.623295,-114.997345
-1.6958037330010478,0.8736776149810663,0.1398114167983978,-0.0021301453503798,-0.0089934230347047,0.0064754824631033,2.954330320217035e-06,1.6410766714615344e-05,9.403164488141796e-06,11809,-142.148078,86.502791,-109.043113
-1.5712509218497577,0.7997530155792079,-0.1621936418651714,-0.0024256155188112,-0.0107846819171349,0.0084021725967295,2.688800137386045e-06,1.4834344798654913e-05,8.315975060161075e-06,11810,-126.603123,86.437236,-92.712429
-1.401688354809567,0.7618563706529808,-0.4950049736725911,-0.0024902075295018,-0.0122915190079101,0.0103142625015643,2.308426011245621e-06,1.2763897560077978e-05,6.705080772682629e-06,11811,-101.701146,85.722397,-67.075663
-1.1447725898976322,0.6393558253701094,-0.7711190715748518,-0.0023650538632005,-0.013456659808013,0.0121805230051037,1.8436977830296795e-06,1.0406573516094445e-05,4.716507175863876e-06,11812,-83.447297,83.967226,-47.900728
-0.8174714420461376,0.4001780765118121,-1.0758108180541757,-0.0021414003813334,-0.0142346439773113,0.0139651177270829,1.3404650324775808e-06,7.917188057666508e-06,2.625699811536992e-06,11813,-74.108296,81.772232,-37.539626
-0.3833795900418036,0.1870910478949389,-1.3953662706228864,-0.0018604513763419,-0.0146095690540013,0.0156107074718237,8.302499900386951e-07,5.37585680474892e-06,6.544753676865281e-07,11814,-68.601026,79.597623,-31.259557
0.2472464203405328,0.0717152235168237,-1.554175650721179,-0.0014925122482032,-0.0145997460862344,0.0170338579049513,3.15565110210159e-07,2.69540911617327e-06,-1.08452929097287e-06,11815,-63.30341,77.427024,-25.720703
0.8622582907958969,-0.0023736863972505,-1.5241127772955554,-0.0010474407475864,-0.01427201137655,0.0181242145339437,-2.249335099557791e-07,-3.398899177669691e-07,-2.6134898029993868e-06,11816,-57.62058,75.077655,-20.071496
1.1784598319713615,-0.077933924340817,-1.427682200958063,-0.0005457851972073,-0.0137606053087734,0.0187311907729261,-8.099892346170967e-07,-3.797514575211021e-06,-4.067135659945407e-06,11817,-52.793598,72.528507,-15.086329
1.3276213591691597,-0.2595102475125826,-1.3307829070467774,1.1111508156176272e-06,-0.013125777260978,0.0187738545458669,-1.4270288116773668e-06,-7.406215850585954e-06,-5.559086986198472e-06,11818,-49.547075,69.940145,-11.307005
1.5230224195690982,-0.6047138107445214,-1.242093359768839,0.0005785659968108,-0.0123546211723266,0.018246560724215,-2.028689300108396e-06,-1.0738887145995262e-05,-7.051675013597768e-06,11819,-47.375265,67.542993,-8.477962
1.678063279017832,-0.8913026595676206,-1.1564302630794543,0.0011796032500173,-0.0114489712554581,0.0171586604279354,-2.563044490108606e-06,-1.3586901728169108e-05,-8.368669809158098e-06,11820,-45.680424,65.381008,-6.322384
1.694420510012154,-0.9343004159379096,-1.057979636532612,0.001806571336723,-0.0103889035934154,0.015572088465121,-3.006912038834651e-06,-1.5997111472323996e-05,-9.374774344396494e-06,11821,-44.249216,63.441948,-4.730306
1.6234034839591502,-0.8653305250090502,-0.955846876350837,0.0024398379128807,-0.0091711770145182,0.0135389883906329,-3.3624740616764823e-06,-1.799629891092321e-05,-1.0086093550212312e-05,11822,-43.028199,61.762179,-3.625713
1.5137732362080365,-0.8239665225171076,-0.8710528550968633,0.0030368891287639,-0.0078169490262413,0.0111046371669148,-3.6366434104260777e-06,-1.954776878124131e-05,-1.0571519747934987e-05,11823,-42.050305,60.311834,-2.972623
1.4117102360109426,-0.7917607888238254,-0.7819910893004726,0.0035450854851103,-0.0063247229365889,0.0083799896440741,-3.836718814789647e-06,-2.069261879996435e-05,-1.087102746565623e-05,11824,-41.265806,59.061374,-2.650743
1.3344738095279929,-0.7508539141106811,-0.6766029612275615,0.0038900065421528,-0.0046793863744987,0.0055409056495292,-3.966983725971096e-06,-2.1491201095363853e-05,-1.1007153415127209e-05,11825,-40.672965,58.010391,-2.576375
1.222441924248976,-0.7061592255975528,-0.5946472794688986,0.0040378610809681,-0.0028899801300637,0.0026855721243749,-4.018488907986584e-06,-2.1875034929926044e-05,-1.0984846110991815e-05,11826,-40.208475,57.326937,-2.577961
1.0130145476343535,-0.6496138752454197,-0.5057264297691899,0.0040004761907048,-0.0009864521840622,-0.0001599436268101,-3.975421135231528e-06,-2.172596882377381e-05,-1.0789037587718468e-05,11827,-39.871483,57.166401,-2.571182
0.6374608287933907,-0.5998008186790675,-0.3209544925318888,0.0037991303395138,0.0009906322731586,-0.002968636132047,-3.829725740624945e-06,-2.1028938186370063e-05,-1.039442835673017e-05,11828,-39.741061,57.561085,-2.61202
0.1244109067399711,-0.5665553438234968,-0.0898060723842471,0.0034869254206025,0.0029783186873338,-0.005750551910021,-3.580461145068708e-06,-1.9787806544959077e-05,-9.797317468397156e-06,11829,-39.928828,58.452786,-2.878016
-0.3263157276103684,-0.5166846996639765,0.0538599033019527,0.0031189548691426,0.0049193023328672,-0.008439653582225,-3.2332571083772912e-06,-1.794868591760003e-05,-9.033449598553055e-06,11830,-40.624721,59.764992,-3.764967
-0.5886527438433371,-0.4887964099773393,0.1274945088188998,0.0027556412857983,0.0067592518863819,-0.0108790928284636,-2.8060486925696618e-06,-1.5566288084728266e-05,-8.117637720215528e-06,11831,-41.867819,61.51481,-5.46057
-0.711981149324056,-0.4880083666989632,0.2805370194232614,0.0025046050493532,0.008419172039397,-0.0128961735757359,-2.331974644954469e-06,-1.2913699656573247e-05,-7.040628236128396e-06,11832,-43.406395,63.571169,-7.501445
-0.764728235713517,-0.3255940477360595,0.5662923179139971,0.0025249410206983,0.0097962443063069,-0.0142596084183954,-1.862485538398064e-06,-1.0359076739475736e-05,-5.8765520264555775e-06,11833,-44.832288,65.883608,-9.148925
-0.7259727244740511,-0.0044294371814608,0.8673207230702551,0.0028855738201638,0.0108318144038106,-0.0148923775081594,-1.4501420057336242e-06,-8.188129477430732e-06,-4.7624560486908455e-06,11834,-46.247305,68.261167,-10.17385
-0.5792656717852374,0.2221631886277725,1.06422712440814,0.0035621920285242,0.0115124750590697,-0.0148988629193952,-1.1066427454030448e-06,-6.459804029579463e-06,-3.734990525956521e-06,11835,-47.75119,70.518515,-10.804447
-0.4067236486561014,0.4057061473677457,1.1466099454736545,0.0045056882353539,0.0118395604734225,-0.0144471513082578,-7.855667151923582e-07,-4.9352569028452725e-06,-2.669705111676442e-06,11836,-49.058432,72.534727,-11.322577
-0.1671333318488819,0.7259569743931585,1.141086427120647,0.0055943342739852,0.0118526155764609,-0.0138576000015013,-4.233514551143533e-07,-3.24737361292738e-06,-1.3990128682066372e-06,11837,-49.994619,74.120036,-12.187731
0.2924253190026628,0.9776617670786216,1.1093169691151457,0.0067187305266514,0.0115850935389273,-0.013284488874848,6.244612504816028e-09,-1.2038117480992224e-06,1.4237104096098848e-07,11838,-50.105663,75.320265,-13.448104
0.8020955124643838,0.9818991003370988,1.1760071839622432,0.0077758255778783,0.0110681751467864,-0.0127019387203746,4.901794264914043e-07,1.1433310415550245e-06,1.91930114072013e-06,11839,-49.057673,76.525329,-14.562084
0.983655976412504,0.9524525415373704,1.3493223011347353,0.0085809308601159,0.0103802518801702,-0.0121354256504579,9.98916583746633e-07,3.650231038363212e-06,3.818810617990411e-06,11840,-47.391228,77.98491,-15.149158
0.8605575105811198,1.004912395951803,1.4562347098160264,0.008869376261765,0.009647333856153,-0.0115765305821999,1.485982915508943e-06,6.163541114405433e-06,5.592455203476271e-06,11841,-46.106975,79.453481,-15.642052
0.7447335365717541,1.0215348463360878,1.414342776973433,0.008554663377985,0.0089270379842698,-0.0110196565316121,1.902910542599476e-06,8.52405874946621e-06,6.973549979561344e-06,11842,-46.240531,80.698539,-16.977719
0.6987863273529308,0.990930587066447,1.3165072337297763,0.0077390102565353,0.008209911189176,-0.010479624146765,2.236222405323882e-06,1.0634146606952956e-05,7.906293915504883e-06,11843,-48.366259,81.749898,-19.845384
0.6259779903719888,0.9602679174400444,1.2267001779112243,0.0066035062087672,0.007476724682629,-0.0099028508858811,2.5060809677082505e-06,1.249582640431722e-05,8.541164384609147e-06,11844,-52.405688,82.744908,-24.315718
0.4449992153750499,0.9221691508733294,1.1424708419507623,0.0055056380943357,0.0066635663432206,-0.0091695577570034,2.729080667492489e-06,1.4107185671266052e-05,9.046198346288303e-06,11845,-58.051695,83.764428,-30.203888
0.1141685037135986,0.8635856775835111,1.0594785151189674,0.0045909589874574,0.0057460073388286,-0.008235502197489,2.9051924764182238e-06,1.540689769526221e-05,9.492461834387427e-06,11846,-65.179061,84.803615,-37.423688
-0.2166500468888711,0.7900675083396407,0.9757019375138182,0.0037764625257885,0.0047433139541898,-0.0071231739837237,3.036653651917301e-06,1.638022739053335e-05,9.883378355911204e-06,11847,-72.809613,85.720794,-45.091936
-0.4886414669442804,0.7285182505890107,0.908037997655942,0.0030177736742962,0.0036477877967844,-0.0058515384740062,3.132103179223343e-06,1.7082458419119766e-05,1.0193340876353612e-05,11848,-79.94703,86.391423,-52.234772
-0.8753345586336944,0.7036248559436125,0.7970711742632677,0.0021998833466344,0.0024442254225857,-0.0044714721112949,3.1958283416718286e-06,1.7557790806641177e-05,1.0364907425096187e-05,11849,-86.504079,86.741018,-58.727556
-1.258471218393113,0.7053873126951338,0.5235661317649604,0.0012696895876644,0.0011335243126174,-0.0030009368343358,3.2328313698614075e-06,1.7864919354744067e-05,1.0352251101674994e-05,11850,-89.832013,86.710709,-62.026519
-1.3388764800335549,0.683485248318339,0.183785840135205,0.0002616329230048,-0.0002731750224321,-0.0014181519751688,3.2486932361996782e-06,1.8087054589347567e-05,1.0150788314599797e-05,11851,-88.37788,86.356673,-60.652956
-1.2767012928662922,0.621082421286132,-0.0073261669286417,-0.0008528501815761,-0.001751002487571,0.0002806656107851,3.238445082631254e-06,1.822956151865445e-05,9.780807452452678e-06,11852,-84.449105,85.837248,-56.985893
-1.4042087016335234,0.5492229695014619,-0.067558141469374,-0.0021307692617799,-0.003254034919747,0.0020985154373741,3.191135895063777e-06,1.8174793303104006e-05,9.297770241328334e-06,11853,-82.338859,85.323952,-54.96753
-1.6134854586406124,0.4617547914648657,-0.1419051883521533,-0.0035535936988866,-0.0047426824896975,0.0040160676064973,3.0958283145475806e-06,1.7757118560278233e-05,8.752070719241547e-06,11854,-82.219551,84.96286,-54.527929
-1.618001460089063,0.3433104594100919,-0.2849025855973773,-0.0050345778469083,-0.0061798704815829,0.0059806586470352,2.934043688182268e-06,1.6879438922585972e-05,8.068866821735023e-06,11855,-81.381279,84.603424,-53.066127
-1.4398382799273557,0.2494742767189267,-0.5073284830002123,-0.0064345349112974,-0.0075076489538939,0.007923629668423,2.6792866459686737e-06,1.5524324100533272e-05,7.060834252088596e-06,11856,-77.555627,83.94103,-48.486529
-1.2184394409456938,0.2199923566556455,-0.752232058466781,-0.0075231552823237,-0.0086482071212912,0.009745255165191,2.32041309222073e-06,1.3689348827893056e-05,5.656676858531649e-06,11857,-71.973923,82.843559,-41.930402
-0.896382683973246,0.1328851357828852,-0.917147630348054,-0.0081978811754372,-0.0095563682231685,0.0113859661519821,1.880844126747488e-06,1.1441070802262078e-05,3.996986813868844e-06,11858,-67.889136,81.422809,-36.421393
-0.4902222366794329,-0.150513789748145,-1.0531122338636565,-0.0084917131497235,-0.0102196405486607,0.0128299997104642,1.3987706389927163e-06,8.948150668369118e-06,2.2550133712316926e-06,11859,-66.158875,79.988318,-32.832036
-0.1890731445886396,-0.5053007561346904,-1.2397616781721266,-0.0084403575757662,-0.0106338216076091,0.0140579952059407,8.970708513731185e-07,6.328502950431854e-06,5.352275506402006e-07,11860,-64.616829,78.709065,-29.483793
0.0614109767528778,-0.6955681252430879,-1.3700484867694522,-0.0081488567839323,-0.010820035869076,0.0150682370664099,3.802668971277919e-07,3.552527434765224e-06,-1.0814975787972103e-06,11861,-61.663815,77.418328,-25.214443
0.4758661957411964,-0.7240177107754389,-1.3729039841594837,-0.0076681847306697,-0.0107871667566989,0.0158300720472863,-1.5021200980423986e-07,5.57523582812073e-07,-2.532109372283726e-06,11862,-57.62063,75.848726,-20.369927
0.9920137182653472,-0.7495221532161562,-1.3455025092788298,-0.0069851339156765,-0.0105323295626668,0.0162768628900345,-6.884858361801031e-07,-2.6231769756064685e-06,-3.81791285704348e-06,11863,-53.762633,73.959003,-15.862711
1.3850822772181277,-0.8623333428333047,-1.3353622238514982,-0.0061397392326065,-0.0100766380594464,0.0163428051115608,-1.2317037333139029e-06,-5.871602562021008e-06,-5.026933935289148e-06,11864,-50.62428,71.907755,-12.006351
1.573542335787834,-1.0800037368730309,-1.2900246609441524,-0.0051981368422667,-0.0094604535077901,0.0159465885311839,-1.7724753741242752e-06,-9.026571756977366e-06,-6.218179290984498e-06,11865,-48.185013,69.920386,-8.807089
1.576285624438057,-1.3106748946550126,-1.2033550989938362,-0.0041942601965499,-0.0087024752416822,0.0150506104451551,-2.282754216260165e-06,-1.1904605823770671e-05,-7.325476233669993e-06,11866,-46.262264,68.152543,-6.227868
1.4519914284883593,-1.3970979922937932,-1.1160652745575848,-0.0031414246521511,-0.0078031732846796,0.0136706052652685,-2.729376101014161e-06,-1.435578242341714e-05,-8.274883164698402e-06,11867,-44.816808,66.598599,-4.363125
1.339466700090926,-1.3362428967002151,-1.0428094372217038,-0.002042322198656,-0.0067630035085689,0.0118399765584194,-3.0941749962983634e-06,-1.6275664423590503e-05,-9.07044931070571e-06,11868,-43.907091,65.173581,-3.251541
1.2981395717128366,-1.247769817382381,-0.9722346351622724,-0.0008751967990936,-0.0055722810695184,0.009635397828653,-3.369255489755046e-06,-1.7614048457521156e-05,-9.720831444202953e-06,11869,-43.353873,63.947959,-2.608664
1.1304919924830377,-1.1820241099808446,-0.8624375763439227,0.0003442227074241,-0.0042481279049593,0.0071456470186501,-3.54949613528224e-06,-1.842321630485671e-05,-1.0179334952265208e-05,11870,-42.930409,63.073518,-2.140261
0.648958189756238,-1.124567348232583,-0.7018697057992663,0.0015597802658959,-0.0028394584913888,0.0044793439916043,-3.634928854975201e-06,-1.8818485287134545e-05,-1.0379849176066582e-05,11871,-42.580613,62.602132,-1.831574
0.1103987570598285,-1.0556677919390172,-0.5429409385757611,0.0027125633873728,-0.0014053945087416,0.0018166162785954,-3.635345521721853e-06,-1.8863875563883927e-05,-1.033533164450288e-05,11872,-42.505231,62.448552,-1.915191
-0.1012099715348747,-0.9768344319767988,-0.3767172654987221,0.0037213371754379,-3.0495175060420328e-05,-0.0005792163095491,-3.5628847078811564e-06,-1.8510682030070015e-05,-1.0136510204994253e-05,11873,-42.567759,62.524483,-2.279363
-0.0935700987876285,-0.9069891617108544,-0.1857844993371053,0.004539953352743,0.0012309536726744,-0.0025721534254322,-3.416913356170398e-06,-1.7699283707004007e-05,-9.803756855359768e-06,11874,-42.624243,62.841505,-2.691671
-0.1668997246875405,-0.8165814696755076,-0.0575027685333818,0.0051637706741067,0.0023580837125636,-0.0041564993670504,-3.182282265341144e-06,-1.6454073872823764e-05,-9.236678326618472e-06,11875,-42.947971,63.394323,-3.41443
-0.3406712107466814,-0.6915356511519223,0.0329772411826506,0.0055887913470916,0.0033238473338146,-0.0053472914883659,-2.848937546682094e-06,-1.483701066609168e-05,-8.332666634535858e-06,11876,-43.631893,64.214908,-4.768687
-0.5354813950025925,-0.5929193215290144,0.2408690676068755,0.0058311648997567,0.0041109264919689,-0.0062468248134021,-2.442408360799773e-06,-1.3016569788126878e-05,-7.099012449330805e-06,11877,-44.136799,65.392515,-6.182903
-0.6438606141803167,-0.5372462673131775,0.500403254893973,0.0059026936210827,0.0047156777039578,-0.0069153350778766,-2.026631852618093e-06,-1.12946950603896e-05,-5.691637270909235e-06,11878,-43.804081,66.913202,-6.740382
-0.537180382482374,-0.504504026571331,0.6147617216476516,0.0058098430685525,0.0051488319477612,-0.0073699043211142,-1.660458241742249e-06,-9.875473188552594e-06,-4.334250323650665e-06,11879,-42.616318,68.50974,-6.211195
-0.300967909010147,-0.4557697638847247,0.628663861146559,0.0055856750318684,0.0054514719255445,-0.0077133210735349,-1.3593124465139386e-06,-8.732916365420372e-06,-3.1665018706687743e-06,11880,-41.530148,69.766763,-5.475335
-0.0393415038038367,-0.2537210201122811,0.6985382715627022,0.005288722308987,0.0057037313244375,-0.0081172028621536,-1.0985905162055904e-06,-7.669744324379428e-06,-2.201254812952972e-06,11881,-41.302906,70.553262,-5.527884
0.290308339264641,0.1005192673541156,0.8122793930037203,0.0049446936385808,0.0059522227530309,-0.0086512886686411,-8.280953063829471e-07,-6.374483348486532e-06,-1.3477854580827522e-06,11882,-41.787703,71.079373,-6.592537
0.5702902727327557,0.3342244052965518,0.8927147807772862,0.0045485977101249,0.0062132557002114,-0.0092909556416733,-4.916657252541366e-07,-4.53773964144754e-06,-4.526513192956407e-07,11883,-42.20565,71.682075,-8.157687
0.6264487322415675,0.3583105768428919,0.9447944709101178,0.0040931619032696,0.0065049610740164,-0.0099881275802264,-7.108504002684924e-08,-2.1088629749198464e-06,5.81823745656457e-07,11884,-42.25743,72.681144,-9.792598
0.5469814096856331,0.4030874730890577,0.9760691702278516,0.0035526141644802,0.0068290078793807,-0.0106203382966034,3.924978192195189e-07,6.074486684878422e-07,1.7132095054545497e-06,11885,-42.6296,74.119536,-11.616309
0.4874343210288783,0.5496394002597875,0.954789552082038,0.0029269442317238,0.0071753561615588,-0.0111237840518361,8.389662016745502e-07,3.272160158408318e-06,2.793523274573087e-06,11886,-43.961003,75.745937,-13.832552
0.4513089853408827,0.6782448216439001,0.9031090313848772,0.0022459865237526,0.0075187576511911,-0.011496212874388,1.2365820829707389e-06,5.773104776607711e-06,3.695334775339904e-06,11887,-46.352568,77.360001,-16.50686
0.4140340872130071,0.7460708339124028,0.8946272768247666,0.0015368261484581,0.0077951864079075,-0.011686595791413,1.5822362296184174e-06,8.069361665121364e-06,4.418262509775027e-06,11888,-49.588216,78.901661,-19.754431
0.3590753377746649,0.7709499640749103,0.9455463846172208,0.0008376111934287,0.0078922099236493,-0.0116226462734167,1.8846553443527004e-06,1.0089226907030716e-05,5.05193820430873e-06,11889,-53.750515,80.353842,-23.974485
0.2458316444655814,0.7891526247300058,1.00624637433438,0.000169633918768,0.0077629348633529,-0.0112700076420089,2.1632444182048065e-06,1.1887789454126349e-05,5.682172030181173e-06,11890,-58.73903,81.671323,-29.13401
0.0973220333387486,0.8368304005316344,1.0314051599680558,-0.0004672735393555,0.0074263408215224,-0.0106237757352742,2.4314376643554417e-06,1.3588760306827844e-05,6.3356084436800245e-06,11891,-64.09741,82.836433,-34.749207
-0.0417385307985329,0.8610959116199728,1.0009813847921274,-0.0010714958051123,0.0069035653438571,-0.0097004328406851,2.672753791587857e-06,1.5092811768517791e-05,6.976463665044816e-06,11892,-69.505304,83.823721,-40.422201
-0.1502175053615303,0.8157332663039727,0.9250549894468943,-0.0016493168492535,0.006251125455058,-0.0085559866950118,2.859249768546354e-06,1.6134272222346368e-05,7.560152971652072e-06,11893,-74.623964,84.613799,-45.731802
-0.2332966239735083,0.7861090848340347,0.849879479759405,-0.0022049098071977,0.0054893668291008,-0.0072272898898988,2.9795389162701054e-06,1.6620556977850926e-05,8.0536946996056e-06,11894,-79.360935,85.219679,-50.510419
-0.3965143651150263,0.8268207637823828,0.7919630585406368,-0.0027390534704924,0.0045961047597674,-0.0057361551140369,3.034287016362615e-06,1.6681543659051607e-05,8.406569406233895e-06,11895,-83.950462,85.715507,-54.936726
-0.7204907680903652,0.86033015675623,0.7025846222825046,-0.0032633987673949,0.0035676838286497,-0.0041383776484268,3.030328324140112e-06,1.6459038683327567e-05,8.585847016614318e-06,11896,-87.722763,86.109813,-58.346913
-1.071781638954507,0.8531530131028129,0.5836182184426079,-0.0037995904790934,0.0024000960047226,-0.0025170940838494,2.988100115323768e-06,1.6036452235811577e-05,8.644677894908163e-06,11897,-88.921579,86.340623,-59.104358
-1.247133419790809,0.8179266898643252,0.4858245689680885,-0.0043483390797944,0.0010971501142281,-0.0009114848583342,2.9319910183782704e-06,1.551705394253102e-05,8.656908729703158e-06,11898,-86.797736,86.399413,-56.699653
-1.282870697612598,0.7118118327555063,0.3741505572172732,-0.0048888251099788,-0.0003214473057822,0.0006813023497589,2.8644667084760285e-06,1.4963576876402467e-05,8.597174207915437e-06,11899,-84.723735,86.385132,-54.359439
-1.409834599210592,0.5408405345441802,0.2218264029697254,-0.0053914293425203,-0.0018359223535758,0.0022765039406413,2.762045079563896e-06,1.4253510777256896e-05,8.364766812179261e-06,11900,-85.808847,86.45675,-54.782552
-1.6651523387126097,0.3847866224118261,0.0865186795249104,-0.0058065309945618,-0.0034203428835244,0.0039242323278406,2.58919580020452e-06,1.3153037031254447e-05,7.836506513087826e-06,11901,-88.393324,86.55236,-56.160556
-1.7741156795818167,0.2904315597558106,-0.0617169160760879,-0.0060825980284228,-0.0050316831252748,0.0056439050455576,2.312469886343148e-06,1.15648833205745e-05,6.866690773049519e-06,11902,-86.602359,86.369843,-52.921275
-1.5157336353712867,0.2377825951856314,-0.3007008248665832,-0.0061628349142501,-0.006606959548827,0.0074225685318792,1.928841125868672e-06,9.65641765582249e-06,5.384578356922594e-06,11903,-79.218382,85.586439,-44.132063
-1.024296802461896,0.1597416120856326,-0.5425434796489513,-0.0059612888581314,-0.0080572021826168,0.0092666696442762,1.4829029860493147e-06,7.7218676584976e-06,3.531908728177072e-06,11904,-73.172343,84.214816,-36.664533
-0.6051951738026703,0.0273397064209141,-0.6805076512725182,-0.005359499441857,-0.0092568746023548,0.0111872487866639,1.032550942006957e-06,5.906854341637031e-06,1.622922600466347e-06,11905,-70.232399,82.680634,-32.310975
-0.364848348340138,-0.0902429692780242,-0.7989729121192953,-0.0043628664119824,-0.010137783573834,0.0131375414890432,6.024576518026863e-07,4.105342013786571e-06,-5.832635763189496e-08,11906,-67.653922,81.285411,-28.728787
-0.0831271478051938,-0.1440589192708077,-0.981436956029246,-0.0031164649722375,-0.0106924001499664,0.0150076843490583,1.8899012092650945e-07,2.1349999198372693e-06,-1.3716012623230438e-06,11907,-63.026853,79.820948,-23.882264
0.4232145081990647,-0.1774716097778511,-1.1593638405686095,-0.0018446890515828,-0.0109217334618238,0.0166325675838991,-2.161122025019937e-07,-1.1835167137030345e-07,-2.3006258326965103e-06,11908,-56.427964,77.904729,-17.70815
0.9319467609392216,-0.208315390270561,-1.2698556019248253,-0.0009221616766038,-0.0108657377148813,0.0177583727584826,-6.352474518103375e-07,-2.7156518481940187e-06,-2.9866083516411665e-06,11909,-49.93918,75.457801,-11.814404
1.2137553938397572,-0.2585210079195785,-1.3368798083142153,-0.0004811450558687,-0.0105466189517164,0.0182558852325031,-1.0977986861610809e-06,-5.5948634104559575e-06,-3.691891488969772e-06,11910,-45.075006,72.777731,-7.270593
1.391868350426963,-0.4408137204831142,-1.3722509444257198,-0.0003878311021682,-0.0099681375914212,0.0181277343072031,-1.598398204246124e-06,-8.509054091009845e-06,-4.570216814767136e-06,11911,-41.974201,70.211373,-4.036742
1.544398493348805,-0.7468708787562335,-1.342431292343694,-0.0004775745183522,-0.0091735854712189,0.0173802928948472,-2.090154857990593e-06,-1.1172649994208687e-05,-5.5520897796426575e-06,11912,-40.168046,67.931536,-1.737114
1.5530257115086434,-0.9712420149404628,-1.256683923387146,-0.0004244515888604,-0.0082387363437053,0.0160888312060743,-2.524876333593791e-06,-1.3427729562921982e-05,-6.489628344926735e-06,11913,-38.91802,65.961444,0.021718
1.437321631295145,-0.9974707303504824,-1.1670073029734158,-0.0001122548221965,-0.0071994246537764,0.0142977688675335,-2.8856954277666324e-06,-1.5272610416636094e-05,-7.30309898212686e-06,11914,-37.902016,64.222515,1.247387
1.3376163620531318,-0.918661598451046,-1.0892712758058103,0.0003324949599866,-0.0060564413791928,0.0120157620670167,-3.1702899755144778e-06,-1.674540626478136e-05,-7.94101398831801e-06,11915,-37.222181,62.714126,1.92789
1.2750907486354264,-0.8706494461754894,-1.0161236910179907,0.0008184787171357,-0.0048075733626063,0.0093260121289326,-3.361573245107336e-06,-1.7789265328736028e-05,-8.318128030539391e-06,11916,-36.900152,61.506444,2.238778
1.1537347782353002,-0.8793556454459605,-0.9356990544786364,0.0011768435213715,-0.0034284383505151,0.0063733673051333,-3.448547585603248e-06,-1.83359128507096e-05,-8.410267810290914e-06,11917,-36.723356,60.675171,2.359287
0.9552259842319744,-0.8698700903668594,-0.8251987081233556,0.0013459241751269,-0.0019335961149974,0.0032722460714339,-3.45099392974005e-06,-1.8459148162301137e-05,-8.302549077807565e-06,11918,-36.549079,60.21989,2.319296
0.8010204173320485,-0.7876717441305376,-0.6614540564064797,0.0014062633475296,-0.0003827742148361,0.0001253031129964,-3.3950585017371254e-06,-1.827837342947328e-05,-8.08968177975489e-06,11919,-36.495832,60.099288,2.064166
0.6457329059444314,-0.672153822202904,-0.4453319175057754,0.0014087701636918,0.001159728146377,-0.0029270720316422,-3.2831719484885496e-06,-1.7756662310029293e-05,-7.821330078288958e-06,11920,-36.648442,60.279373,1.628622
0.3167394150364623,-0.5937463500522033,-0.2435487014258956,0.0014366167176886,0.0026037140962107,-0.0057154491671764,-3.0967905943556303e-06,-1.6728610957189604e-05,-7.5034719688245e-06,11921,-36.962141,60.800222,1.079798
-0.0877061279974101,-0.5391783184314056,-0.1238601281295636,0.0015303635297128,0.0038936145657215,-0.0081192206482426,-2.824759632805584e-06,-1.5147775645890838e-05,-7.090955539501809e-06,11922,-37.539945,61.67345,0.122858
-0.4247376917477597,-0.4561687364930337,-0.0436414585177304,0.0016672421523811,0.0050144481595598,-0.0100659181721006,-2.4776210812780906e-06,-1.317588121796956e-05,-6.510148640852717e-06,11923,-38.656454,62.981026,-1.638993
-0.7039026478792114,-0.3942859114518373,0.1063992639666076,0.0018449669110189,0.0059464809876642,-0.0114987139589568,-2.081007931224961e-06,-1.102417422095897e-05,-5.7457836893361845e-06,11924,-40.151478,64.724845,-3.856242
-0.8364065504538745,-0.390512877101537,0.3420175669911522,0.0020554966390211,0.0066841475176209,-0.012402288940128,-1.6824029301802798e-06,-8.939748577817779e-06,-4.900697464554328e-06,11925,-41.600281,66.755231,-5.80131
-0.7959930805612114,-0.3242937063205683,0.5498677637092689,0.0023073664578883,0.0072284567819087,-0.0128002462064809,-1.338879299953758e-06,-7.228196244931207e-06,-4.104543537247442e-06,11926,-42.877924,68.861061,-7.064744
-0.706160840051304,-0.106716756171808,0.6575011779212113,0.0026371170495812,0.0075865073640659,-0.012768791558146,-1.071476048238152e-06,-5.97851066954001e-06,-3.4157173972291703e-06,11927,-43.986422,70.816183,-7.652845
-0.5402074953533832,0.1882262614865736,0.7097893704522984,0.003079938170461,0.0077953053054691,-0.0124794000635113,-8.485219425908613e-07,-4.927676018639193e-06,-2.7992956760169072e-06,11928,-45.004913,72.334284,-8.093746
-0.2236845371621675,0.4484347163707977,0.7715692140814991,0.0036811201238856,0.0079264946219906,-0.0122271824786401,-6.121115039594422e-07,-3.763776428599712e-06,-2.0891134295271945e-06,11929,-45.701652,73.333462,-8.785546
0.1787106769835802,0.5966681589266405,0.8580902440421514,0.0044194546261166,0.0080136850252714,-0.012139389863376,-3.1536078331586665e-07,-2.3704870400372178e-06,-1.072650088683933e-06,11930,-45.649726,74.088064,-9.69893
0.5505644653437789,0.6069435472546096,0.931179985911256,0.0051925067535256,0.0080546428747532,-0.0121718549118214,5.184696626692444e-08,-7.412105049585573e-07,2.8408771973097417e-07,11931,-44.663305,74.99329,-10.494043
0.7355305938056755,0.5513276081973144,0.9454122507329412,0.0058506764574772,0.0080526927774915,-0.0122744410780559,4.602968101703786e-07,1.1203117855928404e-06,1.769328416933285e-06,11932,-43.405247,76.168354,-11.082018
0.6812079699198357,0.5197959936630002,0.8996069097344308,0.0061571979684781,0.0079983016581646,-0.0123046244734682,8.630173699271301e-07,3.128762938900536e-06,3.1284832515253884e-06,11933,-42.782255,77.415088,-11.856063
0.5724982109705248,0.5162014763660379,0.8444599861085719,0.0060274000211601,0.007884296520899,-0.0122028482152932,1.222005268357553e-06,5.094798758658787e-06,4.247770816189538e-06,11934,-43.34883,78.552323,-13.36931
0.5415348711738354,0.5365485274460817,0.8387846234364501,0.005544879780868,0.0077077506180126,-0.0120065939112378,1.5228007413234168e-06,6.897926313790926e-06,5.110268948390475e-06,11935,-44.736714,79.619902,-15.483873
0.5039621244711245,0.5853095097316238,0.9169285847761812,0.0048222805058669,0.0074463822551346,-0.0116935018143066,1.7791938179405828e-06,8.575939372458117e-06,5.761038735585379e-06,11936,-46.470126,80.730134,-17.869968
0.3576830693164743,0.6362848403031949,1.054656904055708,0.004084082447632,0.0070590896494977,-0.0112235080444358,2.013404346139849e-06,1.015465583031456e-05,6.323020315551315e-06,11937,-48.450366,81.891537,-20.505293
0.1246447206061225,0.6937925414627195,1.1403892806539468,0.0034127234693961,0.0065304107712744,-0.0105811852498388,2.229416593200308e-06,1.15603526268552e-05,6.8846970589560965e-06,11938,-51.312199,82.985712,-23.994844
-0.0498254177323546,0.7502545442621649,1.1105275113736546,0.0027288959837417,0.0058691286028306,-0.0097601052174098,2.4227107729291767e-06,1.274984126056284e-05,7.438623086149318e-06,11939,-55.330247,83.926462,-28.489065
-0.1114286286229088,0.7555740476239077,1.027119283653822,0.0019782057831624,0.0050868118870897,-0.0087723146891893,2.593612837209127e-06,1.3772091293872526e-05,7.940352296496807e-06,11940,-59.927902,84.678704,-33.390925
-0.2025253197429979,0.7075953257587644,0.9455964003278176,0.0010555383384708,0.0042105215739551,-0.007657595347469,2.7352384714464478e-06,1.468186421348567e-05,8.324262403870653e-06,11941,-64.896837,85.271165,-38.481056
-0.4201120836518301,0.6545135383839771,0.8733269423860778,-6.110592068874583e-05,0.0032505480444348,-0.0064251916393251,2.828184822331256e-06,1.5423539766993347e-05,8.520866426626335e-06,11942,-71.632404,85.781962,-45.065598
-0.7356046324119688,0.6290564311472654,0.8027223493547322,-0.001284645215804,0.0021981638781139,-0.0050551142151615,2.8620320987200145e-06,1.5869526117259256e-05,8.529537108079905e-06,11943,-79.776345,86.172663,-52.833713
-1.0504503082924244,0.6294636382395341,0.7026358890140437,-0.0025356086279144,0.001051155775454,-0.003533207994734,2.854084341707042e-06,1.6022128736905945e-05,8.41591250263936e-06,11944,-86.454761,86.33214,-59.110955
-1.2593625357574352,0.6254558757795271,0.5820075232871628,-0.0036937381571131,-0.0001948331859497,-0.0018366628406869,2.822138204496162e-06,1.6007740193655186e-05,8.186229953672902e-06,11945,-88.559947,86.18046,-61.006223
-1.3828690206159122,0.5897165411142167,0.5016765293514898,-0.0046965507361777,-0.0015273343352496,3.7172778760435725e-05,2.7596629602872326e-06,1.5861488884507227e-05,7.782081896715649e-06,11946,-89.663104,85.798616,-61.768541
-1.4421287590615082,0.5279110923846635,0.3999614843685142,-0.0055553111169971,-0.002911358713872,0.0020648892969021,2.6583517340013666e-06,1.5489486385300905e-05,7.214778354658123e-06,11947,-92.421737,85.387888,-63.76435
-1.3899331732938225,0.4484756030852345,0.0747091298445899,-0.0062706931988974,-0.004301491669086,0.0042188396318527,2.5092410329298417e-06,1.4788609401341645e-05,6.489524470602464e-06,11948,-94.21199,84.937933,-64.556282
-1.2821692100143918,0.3847869648200068,-0.488680252374579,-0.0068659090189064,-0.005631360137482,0.0064552161776325,2.284989660973845e-06,1.3727900085544012e-05,5.466904380855176e-06,11949,-91.106318,84.240238,-60.517116
-1.1435815690848012,0.3565897499196354,-0.9998689731512368,-0.0073427434419763,-0.0068525294511518,0.0087173819393634,1.9670214376073325e-06,1.2320288300196186e-05,4.055631903211834e-06,11950,-83.621059,83.07003,-52.173499
-0.9286118702205486,0.2514260219662108,-1.2402428516682424,-0.0076728535101286,-0.0079351028012402,0.010932277480234,1.5757500321349002e-06,1.0552252813690032e-05,2.433921556502517e-06,11951,-76.730928,81.460984,-44.15906
-0.7047104092003975,0.0209199228141086,-1.300769627618541,-0.0078464160895083,-0.0088379762280438,0.012991308964202,1.154714448027329e-06,8.460349312074739e-06,8.854042463413943e-07,11952,-72.398324,79.850699,-38.369116
-0.3903214069362942,-0.1774224080901441,-1.3411635362436247,-0.0078599071770908,-0.0095175859829524,0.0147411982395651,7.361281596284324e-07,6.175311485264859e-06,-4.491217074397002e-07,11953,-69.226412,78.549068,-33.847296
0.2114421775700237,-0.2787845149141814,-1.36597167128036,-0.0077086917149861,-0.0099507625278616,0.0160933196556117,3.283016209221026e-07,3.776695104851789e-06,-1.5483624588407118e-06,11954,-65.156774,77.336593,-28.974456
0.8881854546460488,-0.3722837943707541,-1.3256471585767131,-0.0073934683624054,-0.0101352867951842,0.0170254252623342,-7.368383934302939e-08,1.2577419467219126e-06,-2.433507649429374e-06,11955,-59.952355,75.850929,-23.373493
1.267651515206023,-0.4452697485160846,-1.2437696032650156,-0.0069163938958507,-0.0100888702903051,0.0175218299410059,-4.794364264165347e-07,-1.3842512880779428e-06,-3.1960022730838203e-06,11956,-54.871161,74.033824,-17.899901
1.3685916436677532,-0.4798090664397172,-1.1649232428650902,-0.0062823344556638,-0.0098607131668674,0.0176070300278288,-8.98263323196705e-07,-4.096105152584923e-06,-3.973796429134706e-06,11957,-50.896566,72.005055,-13.397546
1.362907150467899,-0.6053941171407404,-1.0946277147933925,-0.0055147207596066,-0.0094697380098073,0.0172924771283241,-1.3290877830766412e-06,-6.7439496107501215e-06,-4.852232165531348e-06,11958,-48.094693,70.020112,-9.919043
1.2884021758262714,-0.8368209904105716,-1.0253258264477665,-0.0046592738559011,-0.0089051079306073,0.0165763803300722,-1.752420613274151e-06,-9.18524177875838e-06,-5.776152088230523e-06,11959,-46.162264,68.207097,-7.235658
1.1940821059819435,-1.0003543192893294,-0.9495792258178488,-0.0037833115508407,-0.0081678954183532,0.0155035609189399,-2.133964166832142e-06,-1.134825415336565e-05,-6.5719522838436784e-06,11960,-44.63491,66.55787,-5.10939
1.1243859074034217,-1.022069749249528,-0.8528180480294157,-0.0029870889210023,-0.0072565354511338,0.0141613363852327,-2.4429183652218345e-06,-1.3189854790045927e-05,-7.097098317696503e-06,11961,-43.266863,65.078199,-3.462768
1.0657206845213865,-0.9724282703365328,-0.7421035674756,-0.0023224925611986,-0.0061758488656709,0.0125906217932797,-2.6685641270571783e-06,-1.4628545771341474e-05,-7.359712297111146e-06,11962,-42.039435,63.771175,-2.314511
0.9841396380995578,-0.9192373383220014,-0.6415439937057605,-0.0017900422345529,-0.0049420505424855,0.0107918600967775,-2.816991052210569e-06,-1.5564834587275214e-05,-7.48201027478344e-06,11963,-41.025407,62.640169,-1.611615
0.7780175144695051,-0.8852540499762525,-0.5530108093831161,-0.001386404861095,-0.003569118250319,0.0087690739156981,-2.9013577737481883e-06,-1.6032902852298882e-05,-7.55270844444745e-06,11964,-40.328594,61.743317,-1.262416
0.4508784975649736,-0.8570438236560008,-0.4592671942787574,-0.0010788493043964,-0.0020731048542861,0.0065080424650081,-2.940031176419904e-06,-1.623174269111363e-05,-7.580271480477689e-06,11965,-39.838601,61.140559,-1.119795
0.1995185636897395,-0.8035364159320846,-0.337873714654724,-0.0008550662440814,-0.0004825023162412,0.0040519588183197,-2.9455100639883665e-06,-1.6272808705444444e-05,-7.568985115616701e-06,11966,-39.440729,60.803498,-1.087663
0.1262769135943985,-0.7166782458598093,-0.2195460162849236,-0.0007259706684436,0.001160419121869,0.0015134463111209,-2.90652715672189e-06,-1.6074386381467947e-05,-7.481660707759747e-06,11967,-39.00972,60.717949,-0.989546
0.1478309776706113,-0.6365017506508353,-0.1648641094159484,-0.0006783665275603,0.0027974506494557,-0.0009690237119794,-2.79501338796233e-06,-1.5549913918141303e-05,-7.179397235609974e-06,11968,-38.66064,60.899324,-0.912212
0.1340252625817855,-0.5816065032823591,-0.0720679401795897,-0.0006846882089913,0.0043471050029926,-0.0031979235543305,-2.5940292693652163e-06,-1.470189126516643e-05,-6.545991653144721e-06,11969,-38.63931,61.482719,-1.243588
-0.0194509015138297,-0.5394605249676045,0.211347126579643,-0.0007148563731669,0.0057417802571003,-0.0050678955840875,-2.315568103639959e-06,-1.3551842926199489e-05,-5.627013647219328e-06,11970,-38.777788,62.708059,-1.812618
-0.2721124840807422,-0.5830144450876289,0.5483672029392327,-0.0007276730002334,0.0069254470457988,-0.0065768160290662,-1.9992682242447773e-06,-1.215651465389551e-05,-4.602865994803815e-06,11971,-38.795643,64.516754,-2.12346
-0.4157201916225387,-0.7025872745893856,0.7025970452680023,-0.0006664373377862,0.007825706952369,-0.0077298542450646,-1.698416341859292e-06,-1.071499476954689e-05,-3.665039550281637e-06,11972,-38.591052,66.520697,-1.956232
-0.331781717640465,-0.6362745351946273,0.7229543393294956,-0.0004546674897386,0.008359440776835,-0.0085895644297623,-1.4493360129662395e-06,-9.470655364050655e-06,-2.910281264536102e-06,11973,-38.495634,68.332974,-1.556434
-0.1061241292442936,-0.3120296370208466,0.7529034744823251,-7.983934437035814e-05,0.0085101794707689,-0.0091939075060735,-1.240946541805679e-06,-8.449219890444872e-06,-2.2928921766540747e-06,11974,-38.640924,69.79263,-1.270753
0.172510881949966,-0.0218167655239119,0.7858721209276519,0.0003979971609516,0.0083365605337502,-0.0095533585762504,-1.0275648542220174e-06,-7.436388193067142e-06,-1.6694263994373312e-06,11975,-39.084777,70.86577,-1.566102
0.4267916592612646,0.1293562388605728,0.8093120113419292,0.0008824238003979,0.0079505323376638,-0.0097403126361183,-7.704601838866964e-07,-6.194293516639077e-06,-9.183499627783056e-07,11976,-39.648797,71.731086,-2.546134
0.5188897576877366,0.2796045068900787,0.8270672538355055,0.0012040090020029,0.0075561112523124,-0.0098791143288167,-4.5657951185766125e-07,-4.634955620527362e-06,6.037781248560672e-09,11977,-39.990331,72.652482,-3.97537
0.4395946346827823,0.3918686553786809,0.8171568341997539,0.0012931262273362,0.0072350324572707,-0.0100216073826809,-9.554158371245661e-08,-2.8327399143828883e-06,1.092508756219346e-06,11978,-39.89051,73.871206,-5.371173
0.3369075568949382,0.3868528011968944,0.8261672032282953,0.0011885190138631,0.0069391796623756,-0.0101529115207193,2.863261769993286e-07,-9.127916718120178e-07,2.2552529492571102e-06,11979,-39.73504,75.379377,-6.515715
0.2900348282614101,0.3770442852920535,0.8912849398142952,0.0009257755086777,0.0066249256396791,-0.0102454490656926,6.618749662753592e-07,1.059308082225988e-06,3.360346742549701e-06,11980,-40.271435,76.92098,-7.883413
0.2651382528027572,0.4375257811989184,0.9673306352518068,0.0005898956027662,0.0061894784239955,-0.0102230191909692,1.0197041002928782e-06,3.0783279433048853e-06,4.336607658872804e-06,11981,-41.800687,78.360544,-9.950832
0.2339689058715625,0.5019006513603611,1.018085318537863,0.0002141334453894,0.0056027986435463,-0.0100574624211707,1.35607992228493e-06,5.107827908673289e-06,5.188196965998106e-06,11982,-44.028721,79.692176,-12.707929
0.1891547539511438,0.5504221483737561,1.03217232886856,-0.000231695830887,0.0049237571534678,-0.0097732742398499,1.660588597512608e-06,7.0968139219300375e-06,5.88809444278377e-06,11983,-46.669345,80.935664,-16.021337
0.127332179120026,0.6400994258952449,1.0047344227645116,-0.0007504051693029,0.0041885546351719,-0.009371400905412,1.923486164504887e-06,9.055635680015944e-06,6.377349588713784e-06,11984,-50.135981,82.017923,-20.306386
0.0580013727818848,0.7738693425067867,0.9566954735769,-0.0013451548869984,0.0034503712467167,-0.0088532260998671,2.145688831411289e-06,1.095542562254204e-05,6.681023472514125e-06,11985,-54.979651,82.890833,-25.885979
-0.0285799895815457,0.8588097994243051,0.9044561153930448,-0.002015079579899,0.0027347769975063,-0.0082170761669646,2.3344989020118105e-06,1.2656284848567484e-05,6.903400110778935e-06,11986,-60.994549,83.624329,-32.349738
-0.1002803573984646,0.848263584635134,0.8422522512160384,-0.0027447173373087,0.0020256046880174,-0.0074495660616213,2.4952553419732694e-06,1.4041056115564052e-05,7.107327727811308e-06,11987,-67.609331,84.272695,-39.188444
-0.156759009232929,0.820846311662388,0.783019688607639,-0.0035255709040715,0.0013148266333432,-0.006543544303983,2.62893299817566e-06,1.5125196766442985e-05,7.287902117587132e-06,11988,-75.297524,84.825081,-46.957429
-0.3860205621483669,0.8139008938959857,0.7339237937280928,-0.0043516026653552,0.0005851832417129,-0.0054946015572017,2.7352616365988557e-06,1.5974774583876186e-05,7.433026630528921e-06,11989,-84.162792,85.19266,-55.78517
-0.8225144817689738,0.7877184628316939,0.6750733002261603,-0.0052033210282121,-0.0001844615325671,-0.0042847399177477,2.811837974390383e-06,1.6571846136449143e-05,7.52475743892757e-06,11990,-92.656769,85.307817,-64.150071
-1.188236345105809,0.7417944444447877,0.6051637300968122,-0.0060481754404193,-0.0010162659764461,-0.0028823773279696,2.8521210571280703e-06,1.6851376319623058e-05,7.524251858419468e-06,11991,-99.153311,85.192185,-70.451032
-1.404264005267919,0.6889683702563979,0.5440196866108847,-0.0068415748767054,-0.0019537146644836,-0.001244572548715,2.8517612023709378e-06,1.6835039307898415e-05,7.410063440335412e-06,11992,-104.407515,84.93887,-75.29653
-1.594592423156532,0.6431615188181972,0.4850746806285299,-0.0075197394171614,-0.0030637696097292,0.0006902744017765,2.8095703836388907e-06,1.662102367316363e-05,7.156125045701682e-06,11993,-109.304403,84.676353,-79.480047
-1.661003036837586,0.6040753095556706,0.3103890652917855,-0.008047898052608,-0.0043430911430753,0.0029200190130271,2.7134118837348385e-06,1.6196329956562837e-05,6.68474492240237e-06,11994,-112.05209,84.450655,-81.328409
-1.5514242962981446,0.5103986194362805,-0.1137520943719551,-0.0084222029112107,-0.0057109581594558,0.0053695617435779,2.536889652307072e-06,1.5360999035707095e-05,5.922436969853432e-06,11995,-108.87872,84.159765,-77.357934
-1.4243561926614627,0.3360221942368503,-0.6637059661467043,-0.0086418075195955,-0.007047264424797,0.0079270663197654,2.26367689723245e-06,1.3972048755204898e-05,4.853491013077054e-06,11996,-98.119619,83.522709,-66.108092
-1.210993974859822,0.1397024625806504,-1.0484226729021464,-0.0087242202396363,-0.0081530944384199,0.0104074217690552,1.906427484753589e-06,1.21295120019446e-05,3.516827425165046e-06,11997,-85.427846,82.16049,-52.937163
-0.8212703909100253,-0.0156586487005031,-1.1880748859380357,-0.0086778959688935,-0.0089414252884649,0.012698965948081,1.494848219782535e-06,1.0010109118126838e-05,2.021871769270785e-06,11998,-76.44739,80.29782,-43.120697
-0.4836635699166394,-0.1113734224769562,-1.234025392610628,-0.0085014024889748,-0.0094470889523483,0.0147667290074732,1.0594390741038168e-06,7.702759815085271e-06,5.470805446653908e-07,11999,-71.40145,78.550126,-36.934087
-0.2419622952288453,-0.1833707049463679,-1.2828970315397457,-0.0082116489890547,-0.0097057762256187,0.01654725658367,6.270250979153944e-07,5.298738528860298e-06,-7.615109995217777e-07,12000,-67.931119,77.217279,-32.403629
0.0922481513989431,-0.2828415934485352,-1.313845745316553,-0.0078400638115233,-0.0098132980057617,0.0179852375358109,2.0930376587639707e-07,2.9385477140690078e-06,-1.911737581259372e-06,12001,-64.163094,75.997995,-27.887936
0.420179687620454,-0.3911135615197094,-1.3178819252471337,-0.0074023906524339,-0.0097980984942126,0.0190281096442658,-2.1012743681196529e-07,6.278468731440804e-07,-3.016339749140691e-06,12002,-60.104407,74.446585,-23.215512
0.6249078191642647,-0.4574024451877407,-1.305993105625169,-0.0069015738818055,-0.009607666946326,0.0196174442054035,-6.534034530262394e-07,-1.8061696518268328e-06,-4.1104578764778925e-06,12003,-56.23341,72.504925,-18.715944
0.8887729842276852,-0.5103781208812926,-1.2696576868940426,-0.0063410231620812,-0.0092168596307954,0.0197204510822727,-1.1055848140972409e-06,-4.426252181713964e-06,-5.086155549184535e-06,12004,-52.850894,70.391909,-14.769554
1.208924910801594,-0.5803178322455648,-1.203205223173518,-0.0057174219443838,-0.008591785636855,0.0193306432932147,-1.5266750760400002e-06,-7.033203899983271e-06,-5.835114879395633e-06,12005,-49.779001,68.345817,-11.347622
1.3242210428989871,-0.6220874987094124,-1.1223216847788722,-0.0050481211917673,-0.0077274796622239,0.0184528985294543,-1.8988665572394688e-06,-9.402484878298946e-06,-6.366295467186072e-06,12006,-46.822543,66.474285,-8.278912
1.23272672609289,-0.6211187508768691,-1.051130774218595,-0.0043751337673348,-0.0066635970292836,0.0171150555842681,-2.21934691040222e-06,-1.1473664378259512e-05,-6.712217282317628e-06,12007,-44.075967,64.716294,-5.64025
1.1354332064987605,-0.6073854121408423,-0.9887342487562734,-0.0037498547936321,-0.0054437536962986,0.015386489581824,-2.476662586891524e-06,-1.326766487748126e-05,-6.859306933649624e-06,12008,-41.799634,63.069822,-3.586626
1.0763384731803418,-0.5876346569574837,-0.8988985671819057,-0.0032449215146809,-0.004134510984655,0.013389180309018,-2.671258919783575e-06,-1.477847063702551e-05,-6.862049433125256e-06,12009,-40.170362,61.658606,-2.101611
1.0092819633307568,-0.5664259453332845,-0.7599489212331166,-0.002899548514626,-0.0027729694733393,0.0111852003914123,-2.8237279931703023e-06,-1.5945867361285704e-05,-6.867946477635242e-06,12010,-39.127738,60.585646,-1.074048
0.9437363861379762,-0.5535485110508411,-0.6025592068222778,-0.0027155425611592,-0.0013609565943977,0.0087773861239407,-2.943611026629012e-06,-1.6732239343035847e-05,-6.9311457106599975e-06,12011,-38.391859,59.842485,-0.345324
0.870770012080594,-0.5350318860231655,-0.4406599594922125,-0.0026917778898355,9.37524132560109e-05,0.0061769132731838,-3.016555791633314e-06,-1.7206710938429256e-05,-6.9347502012250255e-06,12012,-37.668566,59.389788,0.262056
0.7870829275868021,-0.4966388297528619,-0.2516907230229719,-0.0028060278296489,0.0015937720281708,0.0033733630843214,-3.029152604780408e-06,-1.7435593799312114e-05,-6.782187800315589e-06,12013,-36.970662,59.226924,0.787128
0.7229243733651856,-0.4547457871784007,-0.0858676886471032,-0.0030443847636438,0.0031205373339623,0.0004211240082773,-2.9777588286155e-06,-1.7341021870387637e-05,-6.508819698362266e-06,12014,-36.455773,59.356848,1.226597
0.5958079559097738,-0.4246649787609567,-0.0104218103061438,-0.0034020925796263,0.0046278495912446,-0.0025452418660033,-2.846852817207642e-06,-1.676372314378665e-05,-6.13344072141175e-06,12015,-36.214391,59.762329,1.466794
0.3299671134246169,-0.3872280430408901,0.0213817345515481,-0.0038510327517415,0.0060676650485053,-0.0053654035083736,-2.617762720520118e-06,-1.5631470733241273e-05,-5.5965048098870126e-06,12016,-36.327364,60.467305,1.134491
0.0280534911984748,-0.337831058696125,0.0622238079580329,-0.0043429353472571,0.0073776495508068,-0.0078154306948546,-2.305640801379883e-06,-1.400217072443447e-05,-4.922992250708635e-06,12017,-36.808218,61.642535,0.048178
-0.263071045286572,-0.3009959621974585,0.1103769849186056,-0.0048206125613229,0.0085100656063002,-0.0097740919593567,-1.956284263303472e-06,-1.2017066561677513e-05,-4.255617895822775e-06,12018,-37.569168,63.356824,-1.448707
-0.5974001955560453,-0.2695277480775404,0.2243872719451572,-0.0052084360854923,0.0094345810069766,-0.0112363163475102,-1.614311772712299e-06,-9.944748628674046e-06,-3.674479284712877e-06,12019,-38.553365,65.44339,-2.803521
-0.7999073179800142,-0.2396059195140436,0.4329005295190591,-0.0054000516314624,0.0101135187042389,-0.0122073128710644,-1.3138639504570934e-06,-8.137214432082271e-06,-3.157059691275861e-06,12020,-39.826868,67.661037,-3.748658
-0.6390222436634169,-0.1828765584412511,0.6066105591863975,-0.0052498737432127,0.010509686303016,-0.0127588066485177,-1.069098979116298e-06,-6.748005067559256e-06,-2.674143531972962e-06,12021,-41.410851,69.837221,-4.466107
-0.2634866822866675,0.0108919334690176,0.6739011567222004,-0.0047294975655481,0.0106133898850393,-0.0129409176442858,-8.482678643590915e-07,-5.564709177570594e-06,-2.1456742287559e-06,12022,-43.070061,71.867415,-5.217698
0.0815891313858973,0.3007756094817809,0.7379099293519402,-0.0039421707422602,0.0104454943670727,-0.01278073501976,-5.890735988880466e-07,-4.248649903179015e-06,-1.395045153858404e-06,12023,-44.24925,73.61939,-6.002811
0.3280545094171497,0.441377774433821,0.822481823060834,-0.0030542613057793,0.0100567354663864,-0.0123830757029002,-2.5680209755672925e-07,-2.640335819749307e-06,-3.0408480218963364e-07,12024,-44.3656,75.017479,-6.844285
0.3806633626650354,0.378391783294301,0.8489218560245905,-0.0023617468662759,0.0095439673179352,-0.0119231974432205,1.3072711172556758e-07,-7.63658061578183e-07,1.0263890027080532e-06,12025,-43.662636,76.23424,-7.822449
0.2483129050059701,0.3124688397845119,0.849530723648659,-0.0019864999196387,0.008951061759771,-0.0114787093678826,5.268011250281123e-07,1.2440100113335657e-06,2.3577678061076333e-06,12026,-42.955445,77.478768,-8.719276
0.1406641029863818,0.3167152687352697,0.8622277672364836,-0.0018612576624411,0.0082678773867002,-0.0110353230844517,8.891133589584893e-07,3.1706384737866898e-06,3.5233684984135773e-06,12027,-42.386705,78.678985,-9.253477
0.1390830277070604,0.3422760169113296,0.8401816824723559,-0.0019276883648139,0.0074931956142109,-0.0105644854280136,1.1972390556176705e-06,4.906107628185556e-06,4.463953016481562e-06,12028,-42.159288,79.689331,-9.886565
0.1391046313629035,0.4458936793976099,0.848040786953951,-0.0020448354051399,0.0066080650568232,-0.0099745886809512,1.455127860318543e-06,6.555902115291959e-06,5.161426776700328e-06,12029,-42.667498,80.597772,-11.233403
0.1096585185781778,0.6131179553935904,0.9701535134070566,-0.0021667399851906,0.005619721111692,-0.009238107102686,1.68775679439595e-06,8.268822851218015e-06,5.687898383648914e-06,12030,-43.793661,81.543213,-13.185857
0.0889585053154869,0.6862011571042275,1.076391912054272,-0.0023649291236669,0.0045695960499521,-0.0083987786378384,1.9190285144851056e-06,1.00329926341779e-05,6.18175732227765e-06,12031,-45.623124,82.521279,-15.847943
0.0460551335135669,0.6245323322877054,1.0436429447950826,-0.0026718905856349,0.0034937625466298,-0.007470626406223,2.148860148555913e-06,1.17315095603216e-05,6.691445155012523e-06,12032,-48.641448,83.428219,-19.643396
-0.0342555331891202,0.5343316791675642,0.9517672127324626,-0.0031327997752485,0.0024378398946028,-0.0064703332875937,2.357643998081614e-06,1.3263338402620158e-05,7.139288033047552e-06,12033,-52.602273,84.213634,-24.193556
-0.1243300147961603,0.4822845144202665,0.8771411574007922,-0.0037689912479277,0.0014304058004953,-0.0054097695141,2.517503469924652e-06,1.4519924625379674e-05,7.410720190501605e-06,12034,-56.870552,84.829141,-28.835927
-0.2381618332387305,0.4680379202350477,0.8204199346426286,-0.0045588116146951,0.0004771591159012,-0.0042847841889198,2.610463378643272e-06,1.541106369312067e-05,7.455554048191526e-06,12035,-61.56347,85.221353,-33.678134
-0.3875106400538209,0.5071371349199849,0.7494271749377655,-0.0054919911005802,-0.0004158422667787,-0.0031014398550162,2.6475820612653364e-06,1.59908095227614e-05,7.314420201005477e-06,12036,-65.866192,85.381964,-38.029313
-0.5453544377211399,0.58002271759763,0.5498319204675992,-0.0065530059170804,-0.0012524266345991,-0.0018711508837235,2.655412860079141e-06,1.6439522067088083e-05,7.041733595239478e-06,12037,-68.734846,85.268729,-41.020105
-0.6556879088494107,0.611271212556493,0.2226137034711099,-0.0077124932256614,-0.0020377871253777,-0.0005924711212771,2.6527827728346315e-06,1.6866453025237594e-05,6.685879487883831e-06,12038,-69.88659,84.832497,-42.446312
-0.7122291762480355,0.5901927363937776,-0.020775494811053,-0.0089295807068823,-0.0027783094705524,0.0007472500359094,2.6469595140802446e-06,1.723656376252514e-05,6.3137035204641904e-06,12039,-70.889663,84.157571,-43.705918
-0.864142884390217,0.5333913615848664,-0.0902253846408836,-0.0101372495094439,-0.0034971861564457,0.0021688953986747,2.6349385599012564e-06,1.747983803188288e-05,5.970609419850418e-06,12040,-73.140597,83.55943,-45.885479
-1.1852842391180387,0.4047884043246034,-0.0965459046968119,-0.0112348573384487,-0.0042358821416666,0.0037078899383424,2.5989792371842813e-06,1.7457419309141607e-05,5.6546632618136165e-06,12041,-75.528075,83.272314,-47.884871
-1.488153561566417,0.234181831685501,-0.128903251406709,-0.0121542697259737,-0.0050074949105277,0.0053718175425428,2.5046584587683705e-06,1.6923243505349308e-05,5.2849743117755145e-06,12042,-76.703881,83.177187,-48.38182
-1.550655173592971,0.1297912729614965,-0.2513376385573357,-0.0128577279987365,-0.0057965222664953,0.0071375875649745,2.31769823446275e-06,1.5743254821732496e-05,4.693787316173167e-06,12043,-75.643275,82.945002,-46.404704
-1.2836128700077054,0.1156847566025601,-0.4923520245675014,-0.0132970786489626,-0.0065820500076486,0.0089744734018207,2.030205040113116e-06,1.4004804022003442e-05,3.7610938506831768e-06,12044,-72.335238,82.195959,-42.034751
-0.7921948067287922,0.1143818708339921,-0.7510437768926059,-0.0134291751488626,-0.0073230305701775,0.0108289015715831,1.6653780444496146e-06,1.187601446540124e-05,2.524901267966442e-06,12045,-69.143972,80.853159,-37.54033
-0.3449700867327315,0.0384313286218585,-0.9534581027320692,-0.0132460406871604,-0.0079889311638977,0.0126444214995254,1.2575747449714074e-06,9.53859448744347e-06,1.10782078935322e-06,12046,-67.243992,79.261397,-34.080397
-0.1203433228133315,-0.1290616687534816,-1.139253166672909,-0.0127789794176503,-0.0085599282646851,0.0143586953260076,8.345143785251905e-07,7.222959461792011e-06,-3.86971998923797e-07,12047,-65.629436,77.778849,-31.002331
-0.022614210897629,-0.2789363893250272,-1.280672274897719,-0.0121043230703427,-0.0089974669672314,0.0158744745841589,4.132905105143037e-07,5.0986478529669086e-06,-1.8575452006918369e-06,12048,-63.081941,76.38307,-27.537483
0.1631660257676087,-0.3235974909854927,-1.3014989218088382,-0.0113647421545167,-0.0092486068727225,0.0170555842058188,1.2664974591349111e-09,3.080769755380797e-06,-3.165442290706368e-06,12049,-59.518631,74.820669,-23.602653
0.4983862785907985,-0.3449181512825102,-1.2322484887125231,-0.0106222707843898,-0.0092852956103816,0.0178263627298777,-3.988243803518172e-07,9.656178445444078e-07,-4.221709821379933e-06,12050,-55.749464,73.030314,-19.639164
0.861724618744102,-0.4252431677551821,-1.1477036944361183,-0.009856674490415,-0.0091032694034431,0.0181727126752222,-7.881519667049265e-07,-1.2722965504024692e-06,-5.080165924778307e-06,12051,-52.246342,71.160359,-15.909173
1.1051309147677828,-0.5355137713426019,-1.0740370716112388,-0.0090556710767911,-0.0087068981226885,0.0180916489774832,-1.1725348641215082e-06,-3.545798933066035e-06,-5.841208848237289e-06,12052,-49.136207,69.337748,-12.54681
1.223044708918691,-0.637691724109307,-1.0059158108737494,-0.0081740911275534,-0.0081219680739917,0.0176228687359566,-1.5447469702396035e-06,-5.824964258274697e-06,-6.477617368307041e-06,12053,-46.389247,67.61065,-9.650688
1.27460218925156,-0.6858914508401799,-0.931055041214876,-0.0072244131818442,-0.007366843306907,0.0167825493398296,-1.877396034611882e-06,-8.046142119191743e-06,-6.88009362969844e-06,12054,-43.90804,65.956434,-7.249368
1.239913683317558,-0.6561998595701011,-0.8488505796489887,-0.0062907396346042,-0.0064540530409639,0.0155625474426152,-2.146608354231146e-06,-1.0010024126088237e-05,-7.048500083578567e-06,12055,-41.661227,64.373574,-5.291148
1.1457025013618396,-0.6204536365280786,-0.7735041014877231,-0.0054591043083385,-0.0054185558276373,0.0139934416396961,-2.3480602120572057e-06,-1.1517543725814644e-05,-7.086902326934765e-06,12056,-39.708727,62.956522,-3.805725
1.0623494297877436,-0.6182556385020072,-0.7124626979341058,-0.0048501582120114,-0.0043156216640969,0.0121345500161128,-2.486410506118029e-06,-1.2556251090968763e-05,-7.044949643274189e-06,12057,-38.09195,61.811635,-2.770082
1.0038344846153766,-0.6126158558424685,-0.6566714334654644,-0.0045215229685799,-0.003175207970156,0.0100219247497164,-2.562012325502836e-06,-1.3238156629317009e-05,-6.898409004777216e-06,12058,-36.840737,60.989498,-2.117465
0.9239679668847712,-0.605234268322594,-0.5832169106715706,-0.0044546544697965,-0.0020040601369753,0.0076763721095922,-2.5833109953934325e-06,-1.3640915544651327e-05,-6.68428384177185e-06,12059,-35.899533,60.496552,-1.721058
0.7730027420442724,-0.5897550331892394,-0.4504815885789608,-0.004623137676963,-0.0008076396081555,0.0051262589661771,-2.5781527793879966e-06,-1.3796944429551895e-05,-6.530870697409004e-06,12060,-35.200893,60.283709,-1.45091
0.6068913998984855,-0.5299190409649907,-0.2488914691286743,-0.0049567950742746,0.0004222710130792,0.0023981358367344,-2.5644738021305737e-06,-1.370982056032166e-05,-6.50242609270348e-06,12061,-34.860157,60.348801,-1.33903
0.441345346091793,-0.4443255666756714,-0.0581160808212802,-0.0053991342243479,0.0016702027140694,-0.0004361298481099,-2.5258050629697244e-06,-1.3326376394615194e-05,-6.534023088391827e-06,12062,-34.959022,60.732221,-1.445549
0.1981890973677536,-0.3550532870207381,0.0515140854168092,-0.005908194475143,0.00289297778463,-0.0032485330648098,-2.4347181831241163e-06,-1.2573420598315882e-05,-6.537445039522434e-06,12063,-35.542518,61.429313,-2.024779
-0.0911075078944675,-0.2658197010844357,0.1326622071896657,-0.0063906277951388,0.0040451784975152,-0.005873110198269,-2.283940367903624e-06,-1.1460644279202124e-05,-6.451260676975524e-06,12064,-36.555042,62.50699,-3.212136
-0.3959865924977535,-0.2364547320312674,0.291145712948348,-0.0067062837659243,0.0050661343522994,-0.0080785341103115,-2.0863149017326555e-06,-1.012526405856397e-05,-6.215217917154386e-06,12065,-37.698772,63.941061,-4.702794
-0.7701607955036119,-0.3166160965365445,0.5375460740683298,-0.0067876974563279,0.0059198624271543,-0.009755992671486,-1.8649122857060773e-06,-8.793230189236025e-06,-5.810491612167859e-06,12066,-38.494599,65.613382,-5.938618
-1.0172786580296735,-0.4312870894639575,0.755910844281777,-0.0066379944541039,0.0065996216602849,-0.0109323926484623,-1.6544328474275746e-06,-7.69221887751114e-06,-5.328898189008583e-06,12067,-38.826879,67.349778,-6.636686
-0.8020048916079963,-0.4285829419350567,0.8386839828376409,-0.0062772222236604,0.00709979626016,-0.0116657707029184,-1.4853749308313767e-06,-6.9020395899803226e-06,-4.907385565712506e-06,12068,-39.17451,68.950318,-7.121961
-0.2847898413433367,-0.2526888251346322,0.820908317901031,-0.0057795707172031,0.0074296853545037,-0.0121125322678622,-1.353372681537322e-06,-6.257590948427358e-06,-4.594594713292437e-06,12069,-40.255279,70.297133,-8.112656
0.0666650058693991,-0.012605780812758,0.8213291134972093,-0.0051883750329967,0.0075954169649403,-0.0123449436276469,-1.224248511719202e-06,-5.470889062639673e-06,-4.347905420720196e-06,12070,-42.082386,71.393359,-9.858876
0.149283527497322,0.1797803072684372,0.8685446968815582,-0.0045160806775418,0.0075994593904929,-0.012343992066206,-1.0640156316393707e-06,-4.373363467277492e-06,-4.0671035936311134e-06,12071,-44.031055,72.397396,-12.127878
0.1344883257482864,0.3087076495212342,0.8953695379916826,-0.0038221246917441,0.0074637889054594,-0.0121495823456636,-8.531692795834941e-07,-2.969479975728609e-06,-3.62025766235114e-06,12072,-45.580452,73.547996,-14.605339
0.1143754461493431,0.3678449882690413,0.8903356452358283,-0.0031999517079927,0.0072291402005665,-0.0118191878819644,-5.93960650750728e-07,-1.3361604178090271e-06,-2.96682975178197e-06,12073,-46.646391,74.922946,-17.033166
0.0906195973871136,0.3621004375053835,0.9100080975703532,-0.0026913135397718,0.0069137494137523,-0.0113753722355619,-3.151884456786836e-07,3.568975290625419e-07,-2.2117259857685927e-06,12074,-47.995844,76.393316,-19.63989
0.0655603186121156,0.3506995926640546,0.9520074533073752,-0.0022911798547074,0.0065152149716877,-0.0108182320653856,-5.888595920676647e-08,1.868343394592516e-06,-1.5072811085596936e-06,12075,-50.58106,77.761098,-23.091459
0.0489372970166689,0.3573213234699239,0.9473393276941724,-0.001980022827902,0.0060310970789058,-0.0101195989318199,1.4506078609041653e-07,3.0674989382911795e-06,-9.608528892842637e-07,12076,-54.625777,79.012622,-27.725769
0.0529306181427207,0.3499026621646323,0.8835305104434229,-0.001698105581794,0.0054479785947907,-0.0092070027213289,2.916716308458727e-07,3.966923657739124e-06,-5.981036871373978e-07,12077,-59.989261,80.17887,-33.582017
0.068771239929946,0.3332525751716041,0.8177092652849246,-0.0014153728776113,0.0047739459666659,-0.0080705843162875,3.883087204742592e-07,4.576787946562166e-06,-3.794452917203703e-07,12078,-66.351023,81.211498,-40.395396
0.0555412440219045,0.3253549873456351,0.7663629115225546,-0.0011319425087435,0.0040426316366713,-0.0067651587716028,4.428566653836069e-07,4.87289449914299e-06,-2.3133620006545475e-07,12079,-73.122007,81.997764,-47.597978
0.0102334122328978,0.3129785233698069,0.6982076695481543,-0.0008203105787613,0.003291507484455,-0.0053483541445329,4.669455323898497e-07,4.868621291073498e-06,-6.33296768760013e-08,12080,-79.236544,82.497384,-54.10104
-0.0519561384264565,0.2688935565265196,0.6061729143206357,-0.0004388503238001,0.0025738991025323,-0.0039126221739143,4.685832759103965e-07,4.585034413167848e-06,1.669439754345885e-07,12081,-83.619387,82.795607,-58.90228
-0.1153354437187194,0.1733139550993135,0.5036138666475829,3.0958039904672215e-05,0.0019210649845197,-0.0025155062239921,4.438455258835166e-07,3.995962112059682e-06,4.271839055853945e-07,12082,-86.268672,82.994102,-62.102544
-0.1475315998597696,0.0423331384178349,0.3824455032779301,0.0005889187140607,0.0013386960048932,-0.0011734711876239,3.909852438560482e-07,3.121366523265316e-06,6.821696031882484e-07,12083,-87.346297,83.131635,-63.877948
-0.2065430450531639,-0.1383728269977575,0.1705257540417366,0.0012243840536338,0.0008342112220716,7.84950685565151e-05,3.1986703651437925e-07,2.131967707860284e-06,8.901256572038514e-07,12084,-86.856934,83.179005,-64.214277
-0.3964653800572018,-0.416874947081482,-0.1966770098131842,0.0019051229172663,0.0004047091003481,0.001205182728022,2.4222334265559064e-07,1.2281722541289988e-06,9.821409353831442e-07,12085,-84.744857,83.048122,-63.071263
-0.6382537200244593,-0.7231578999550231,-0.5883104992353807,0.00261289069033,4.549708317754214e-05,0.0021859306345391,1.7069378478839745e-07,4.579150635368762e-07,9.837845862618372e-07,12086,-81.119699,82.721311,-60.644277
-0.8103146462082841,-0.8990387987667715,-0.7747423514050509,0.0033422986158696,-0.0002495664610518,0.0030111546230848,1.2129173754827214e-07,-2.482071137268999e-07,1.0501792019385563e-06,12087,-77.209132,82.26517,-58.165571
-0.9941197156783448,-0.9162848436065666,-0.7644964514884511,0.004072302829073,-0.0005048776172528,0.0036917855793597,9.727291397272319e-08,-9.75210880615957e-07,1.3007410220312916e-06,12088,-74.849629,81.917839,-57.241779
-1.2048278347868908,-0.8887708641218798,-0.7741828029145996,0.0047720439854956,-0.0007648428258243,0.0042667689110984,8.334471064921486e-08,-1.838478192745594e-06,1.7415369774730177e-06,12089,-73.871156,81.845149,-57.507131
-1.2890507272851717,-0.9152540016942776,-0.8620063223798576,0.0054364025490733,-0.0010526466896501,0.0047416736412829,6.27418642750264e-08,-3.022350701525873e-06,2.358799252156784e-06,12090,-71.352888,81.872251,-56.135005
-1.1928655965585748,-1.0826523911800958,-0.8997558837324989,0.0060861741280491,-0.001371987453716,0.0050890371573373,2.4173058591380705e-08,-4.663729182367856e-06,3.124745479913002e-06,12091,-65.663981,81.741383,-51.624497
-0.9491674748843943,-1.4183815106270043,-0.8624104662717634,0.0067573476387117,-0.0017301365642702,0.0052846346699523,-4.015258072684036e-08,-6.63379347071905e-06,3.894741130267978e-06,12092,-58.946873,81.394754,-46.012979
-0.6282640698061133,-1.724944958381517,-0.834634874867682,0.0075149919001631,-0.002127815373842,0.0052909184375965,-1.21912474774044e-07,-8.607441367718345e-06,4.513961913336983e-06,12093,-54.004602,80.950735,-42.0266
-0.3677144569684879,-1.7746576770868263,-0.8510988156106526,0.0083766349201566,-0.0025583978979057,0.0050974024224847,-1.9021981444069568e-07,-1.0375105876115344e-05,5.037242720892807e-06,12094,-52.080626,80.565739,-40.960117
-0.2018998149413013,-1.6213784480823763,-0.922171998103876,0.0093077654747712,-0.0030073133619859,0.004727036823494,-2.21028295449435e-07,-1.1892697592194202e-05,5.601587424036428e-06,12095,-51.878569,80.208933,-41.718258
-0.0373608165472238,-1.4465931577000193,-1.0487209815616458,0.0102672964292183,-0.0034417012318904,0.0042071909091909,-2.166045235284611e-07,-1.3093416970247645e-05,6.1839794169309175e-06,12096,-51.065391,79.729328,-42.247391
0.1102549639715384,-1.310132841307699,-1.1572655114725632,0.0111820619561443,-0.003805504284331,0.0035851417337795,-1.7935826742257404e-07,-1.3898422736029407e-05,6.72762292641678e-06,12097,-49.39623,79.088601,-42.282117
0.1790329921343824,-1.1938095839212362,-1.1663561416187913,0.0120220428911625,-0.0040752435393653,0.0028840181735184,-1.0293140064485593e-07,-1.4388977898586568e-05,7.29682357824711e-06,12098,-47.896333,78.424557,-42.728924
0.2309627709878572,-1.0111179066178182,-1.1045303421544084,0.0128071036991738,-0.0042605717757207,0.0020989162290548,6.021543607986279e-09,-1.4701867095401487e-05,7.921770750056064e-06,12099,-47.004277,77.882147,-43.992942
0.2901008621717934,-0.6529122018198041,-1.050774110194409,0.0135517061001513,-0.0043734656697346,0.0012307397754337,1.3565670945266826e-07,-1.4783205335521166e-05,8.50935533738517e-06,12100,-46.715217,77.471386,-45.976508
0.3153999841253528,-0.2249700567459691,-1.0274665618928644,0.0142882027888189,-0.0044449649430164,0.0002731812973167,2.904861623812454e-07,-1.4503397395245044e-05,9.017312431141626e-06,12101,-46.742014,77.10245,-48.341858
0.3182654345506523,0.0431389178511471,-1.0336581253378785,0.0150297714757352,-0.0044885136909777,-0.0007626892442411,4.743183379686133e-07,-1.3902685234712136e-05,9.513532492872413e-06,12102,-46.959466,76.710882,-50.988652
0.3050529075206071,0.1494444968697848,-1.063797926508281,0.0157644142488916,-0.0044972894020641,-0.0018428455089081,6.672073130922481e-07,-1.307719531041329e-05,9.988648526829274e-06,12103,-47.38749,76.331216,-53.975548
0.2710329690633024,0.2620624894454881,-1.0706935787008858,0.0164912824352697,-0.0044759063935409,-0.0029299745562452,8.49905641576113e-07,-1.1965668613206138e-05,1.0322134796366955e-05,12104,-47.984787,76.05617,-57.304975
0.2384635371548865,0.4424805724025021,-1.0094882790277708,0.0172099712777472,-0.0044314727668846,-0.0039730929581433,1.0306147546009642e-06,-1.0483525659042506e-05,1.04830522092927e-05,12105,-48.790806,75.936642,-60.960011
0.2121816194245915,0.6425641061308468,-0.8993236058299132,0.0179216655417679,-0.0043657081921466,-0.0049411858802668,1.2225497666273546e-06,-8.737392242634631e-06,1.0581220746729856e-05,12106,-50.047318,75.942802,-65.064486
0.1802630743070185,0.8000912274926734,-0.7928431906768076,0.0186335207333448,-0.0042777748008322,-0.0058265702417456,1.4214458870309016e-06,-6.906871297319796e-06,1.0714506319887736e-05,12107,-51.897824,76.016012,-69.712036
0.1549319301136032,0.8716664317771836,-0.7180240398591919,0.0193506165103378,-0.0041612840976164,-0.0066208393977469,1.6166768786294178e-06,-5.055017105781194e-06,1.087035110665662e-05,12108,-54.290671,76.163344,-74.865663
0.1505265333927627,0.8935255266113669,-0.6675286286185775,0.0200778383636054,-0.0040020301514917,-0.0073258814556074,1.7999079396452443e-06,-3.160076592123317e-06,1.0949035086889862e-05,12109,-56.934511,76.386362,-80.34342
0.1572993943926515,0.9377016140078188,-0.600472735107024,0.0208089309685792,-0.0037884800120173,-0.0079358751482252,1.9593533120201868e-06,-1.1542556082441511e-06,1.0809987898558828e-05,12110,-59.595698,76.61056,-85.998852
0.1640710670424066,0.9875079427363392,-0.4973052992544029,0.0215232153295832,-0.0035102235201096,-0.0084353585343594,2.077985072759262e-06,1.069394419370958e-06,1.0309345549925632e-05,12111,-61.988599,76.703602,-91.625985
0.1653692374118003,1.0167070289741529,-0.3787010034651414,0.0221899982505302,-0.003149597348641,-0.0088176455243228,2.143583460730632e-06,3.532828381425565e-06,9.386643544920622e-06,12112,-63.965171,76.517761,-97.220464
0.1371612569519744,1.0846898363870163,-0.2381329543745516,0.0227615071074195,-0.0026822062674412,-0.0090808806975503,2.1645619875081807e-06,6.102382663152471e-06,8.166399659814032e-06,12113,-65.665937,76.192368,-102.875701
0.0422694092023071,1.1862071975853166,-0.0948664304819845,0.0232259386402543,-0.0021195020333406,-0.0092212583373935,2.1701347959975624e-06,8.550915770256386e-06,6.9615266725860125e-06,12114,-67.144355,75.98181,-108.374847
-0.0905911423285689,1.227837420016246,0.0426519580980389,0.0236116479409632,-0.001513789634646,-0.0092356364257202,2.188758430052514e-06,1.0634992366613145e-05,6.125596404844464e-06,12115,-68.534367,76.064762,-113.479337
-0.152270478528793,1.2192396461014083,0.2812782910794771,0.0239588129798064,-0.0009439202858781,-0.009123120110402,2.231919758033861e-06,1.22211370350863e-05,5.821559649519663e-06,12116,-69.76927,76.496614,-117.92344
-0.1005151896488752,1.2431548752549169,0.6081643307069531,0.0243393562343278,-0.0005361111135153,-0.0088848731581882,2.297812069180522e-06,1.3397306358790811e-05,5.931996041972623e-06,12117,-71.216827,77.168253,-122.159173
-4.955304365725178e-06,1.2852544393875889,0.8051229176606733,0.0247763720765528,-0.0003376653774929,-0.0085342794163197,2.374940679501988e-06,1.4394129379367342e-05,6.182478190830858e-06,12118,-73.157986,77.912051,-126.689925
0.1123652879477992,1.2803231367750942,0.825208124760124,0.025237969111845,-0.0003094752085858,-0.0080999291478627,2.4322849461978498e-06,1.5372095589795446e-05,6.257065575527911e-06,12119,-75.253858,78.519323,-131.515326
0.2330917721584446,1.2292655872148188,0.8544533895242868,0.0256898618646721,-0.0003997591445013,-0.0076244960321357,2.424224487327999e-06,1.6324886686725737e-05,5.869254856922361e-06,12120,-76.950174,78.794176,-136.386785
