AccX_processed,AccY_processed,AccZ_processed,GyrX_kalman,GyrY_kalman,GyrZ_kalman,MagX_processed,MagY_processed,MagZ_processed,PacketCounter,Roll,Pitch,Yaw
0.0318935435161245,0.6393589446524601,0.2600804630234359,-0.0010962889364427,8.770785634216354e-05,0.0006045314446201,-2.2315282073090666e-07,5.5528208606725484e-08,-2.170417503355295e-07,11582,1.71356,9.880738,10.072471
0.0978666985387027,1.8741126565739024,0.781902896359203,-0.0010101202852413,-2.6405996058951643e-05,0.0005536984028447,-2.820928790228305e-07,1.193808732701399e-07,-3.819315725979365e-07,11583,1.687457,9.853171,10.137533
0.1350273374971531,2.4575218904352587,1.031740083559908,-0.0008239804606585,-0.0002084330363273,0.0004739946502071,-3.325975642222681e-07,1.5809627608599646e-07,-4.882937600604259e-07,11584,1.659707,9.824273,10.214031
0.1140679632457443,1.7785054119001102,0.7607581016222973,-0.0005576046682007,-0.000396617858255,0.0003135265892765,-3.7466687632921937e-07,1.7167441705429525e-07,-5.361283127229978e-07,11585,1.616531,9.795961,10.26339
0.1284323820464042,1.8138869797869053,0.7737496372482497,-0.0002587275856023,-0.0005570905930476,0.0001082980378685,-4.083008153436841e-07,1.6011529617503607e-07,-5.254352305856517e-07,11586,1.573911,9.76644,10.277622
0.1301470813856829,1.7075114470124704,0.7247791582241998,8.713263556283496e-06,-0.0006795525793644,-5.664516037006946e-05,-4.175265237215683e-07,7.379518188713981e-08,-3.458692776645994e-07,11587,1.551758,9.747812,10.274497
0.1235432326524524,1.466862614330864,0.6198200012363666,0.0002269372763589,-0.0007603153137326,-0.000170249457258,-4.22443969983524e-07,-4.068454001526565e-09,-1.754752784060825e-07,11588,1.540554,9.736295,10.281405
0.1267109063973603,1.3922581323669876,0.5846903154101973,0.0004104092774839,-0.000811792907304,-0.0002682626851318,-3.99112654375801e-07,-1.9083054202256374e-08,-1.2797231695056254e-07,11589,1.532267,9.730605,10.291873
0.1196294363750384,1.1988612444587436,0.5073845972388981,0.0005583374294096,-0.0008393208179399,-0.000356117041169,-3.786150466826568e-07,2.6941985393200694e-08,-2.1823588336997517e-07,11590,1.530348,9.7323,10.320989
0.1067271680830104,1.018924122409804,0.4378542679541891,0.0006626993779463,-0.0008402846563012,-0.0004251697275015,-3.912238918806571e-07,9.107691017629913e-08,-3.645151190409807e-07,11591,1.53087,9.742268,10.342056
0.0955839949076857,0.8667946091063125,0.3753226150033446,0.0007314145305852,-0.0008244793494884,-0.0004859648050953,-4.092346760270922e-07,1.4359794883346902e-07,-4.881857668678949e-07,11592,1.536921,9.761656,10.349994
0.080910621693216,0.6771626101394784,0.2993138919286283,0.0007819267280362,-0.0008100072831575,-0.000557900023927,-4.1738950046552893e-07,1.699962707231154e-07,-5.515260345820482e-07,11593,1.552341,9.789464,10.337046
0.0481254330655654,0.5116093806059415,0.2399202693761689,0.0008216215221668,-0.0008045049958174,-0.000648592880247,-4.416335389230423e-07,1.698746704962147e-07,-5.681976984776019e-07,11594,1.566044,9.818186,10.326601
-0.007731948181554,0.320455909753706,0.1740660725805656,0.0008493611581314,-0.0008066143918742,-0.0007561266078813,-4.633402725177788e-07,1.776362496097322e-07,-6.059980103327723e-07,11595,1.575106,9.850016,10.313769
-0.0599085630782954,0.1231736568697559,0.122354776259352,0.0008620002105274,-0.0008123069604516,-0.0008741507158602,-4.280498521495933e-07,2.2781714577919345e-07,-7.116347729637851e-07,11596,1.600015,9.886147,10.296042
-0.0875704934760866,-0.0628740109989229,0.1044775579817072,0.0008488887429633,-0.0008095371359652,-0.0009857761145675,-3.347815533257598e-07,3.086381826943982e-07,-8.556866597743187e-07,11597,1.645257,9.919046,10.244474
-0.0945144546693393,-0.2503164213933204,0.0974579933611427,0.0008093259136306,-0.000794600153536,-0.0010835600897103,-2.4283195050189576e-07,3.666429939569051e-07,-9.460281114254016e-07,11598,1.711129,9.925729,10.197963
-0.0956243322119099,-0.4282807398545106,0.0836735847137647,0.0007533381491929,-0.0007725957988537,-0.0011694273217949,-2.069742276610586e-07,3.478951187119478e-07,-8.842536169647324e-07,11599,1.800882,9.928867,10.084346
-0.0992287823596898,-0.5956357770965849,0.064292405999947,0.0006891972392686,-0.0007451323078947,-0.0012395159818494,-2.1467327956325215e-07,2.582714428526462e-07,-6.755094487914641e-07,11600,1.900624,9.924372,9.975015
-0.0993000042611597,-0.7480296793448996,0.0363941900064657,0.0006283037612722,-0.0007143478053209,-0.0012884243755772,-1.9924960339549197e-07,1.5006237528795327e-07,-4.0996829790086324e-07,11601,1.996869,9.918198,9.815908
-0.1068663042510894,-0.8925192864705932,-0.0205349874987891,0.0005772421447622,-0.0006816811473502,-0.0013135446688069,-8.862268656659198e-08,5.7411973966464394e-08,-1.3816173306689157e-07,11602,2.095181,9.913773,9.617042
-0.1142279485315737,-1.0366806298803792,-0.1051515972638948,0.0005360708226842,-0.0006465123706023,-0.0013136683681992,1.5315991204151282e-07,-2.1672172531604233e-09,1.1190993286201121e-07,11603,2.195396,9.903499,9.415804
-0.0567131400740973,-1.1727639576566202,-0.1961636083645798,0.0005054643380655,-0.0006095346561488,-0.0012898391181681,4.886532343570075e-07,-1.4095068552950146e-08,2.8885974834781925e-07,11604,2.306321,9.870656,9.187536
0.0550911278632461,-1.304981610614658,-0.2824853352790361,0.0004838007377299,-0.0005720921466453,-0.0012464920627443,8.500514999297822e-07,9.92185913185463e-09,3.885132283301809e-07,11605,2.414893,9.835986,8.89696
0.1125249503972334,-1.4316968251017534,-0.352876909593874,0.0004688229260099,-0.0005339582112604,-0.0011850839370411,1.162553478211388e-06,2.4115363015305165e-08,4.821797619581092e-07,11606,2.521255,9.819972,8.644838
0.0979505355886007,-1.5307044917923736,-0.4372636612409049,0.0004577954893715,-0.0004935479376587,-0.0011043489032305,1.3226061147462769e-06,-1.449515154211714e-09,5.954753396681314e-07,11607,2.601713,9.825225,8.425408
0.0849140200408402,-1.598275716551894,-0.6148796376046716,0.0004435405515392,-0.0004482280982972,-0.0010044614611666,1.311008890237531e-06,-2.513030725660335e-08,6.289279008884315e-07,11608,2.629775,9.866818,8.236668
0.0861703657945009,-1.6438542756012056,-0.8626093122397306,0.0004139331301926,-0.0003935410596497,-0.0008856930923788,1.2506953315399194e-06,1.4348854969679809e-08,4.993427490378888e-07,11609,2.564317,9.912687,8.163423
0.0722511108687354,-1.6788677354810786,-1.0412437133322192,0.0003640895922219,-0.0003278322173538,-0.0007489306399345,1.2432614504040692e-06,1.0844094157558785e-07,2.731040861634514e-07,11610,2.462683,9.972151,8.175733
0.0338853756709709,-1.727553241411656,-1.107310215551597,0.0002963617471099,-0.0002524566089101,-0.0005962487240124,1.2799991424131768e-06,1.989047923332735e-07,7.778339983248245e-08,11611,2.375678,10.054443,8.209851
-0.0373909031960487,-1.8034130650160904,-1.145697374350985,0.000214104727718,-0.0001690682846356,-0.0004299589352636,1.313352462369736e-06,2.4260775417273445e-07,-1.1674995878347862e-08,11612,2.334707,10.143165,8.215
-0.1221461532311941,-1.885426171545797,-1.2016684618859814,0.0001253939029655,-8.110560083609194e-05,-0.0002530729683987,1.2997269960940991e-06,2.294591027116966e-07,1.2889422236959773e-08,11613,2.32067,10.22202,8.232844
-0.175213082665004,-1.9521470966407848,-1.2442575800464453,3.489946374680134e-05,8.661954326793348e-06,-7.060620536534747e-05,1.2014904615093362e-06,1.9080759722432317e-07,6.81859659908307e-08,11614,2.324586,10.245086,8.295893
-0.1895406290106462,-2.0064765953892016,-1.2461248485218055,-5.643092362557373e-05,9.817383160419772e-05,0.0001099881791823,1.0207852240062331e-06,1.920778175322057e-07,4.559030967182861e-09,11615,2.309908,10.198731,8.433666
-0.1797867936411049,-2.046245454393285,-1.217183683925074,-0.0001440646864545,0.0001833902624293,0.0002783501800709,8.352027537283317e-07,2.669665066050165e-07,-2.273790525755149e-07,11616,2.273079,10.130362,8.53506
-0.1564993916887369,-2.070007635523335,-1.182161590010928,-0.0002214882789566,0.0002585381069895,0.0004199517741687,7.13789519007645e-07,3.6295836071320777e-07,-4.887407791868213e-07,11617,2.229132,10.055817,8.565229
-0.1449855601477404,-2.0902902616737427,-1.149361471247652,-0.000285198462239,0.0003204874425847,0.0005267757618894,6.092350724438624e-07,3.8915897000658986e-07,-5.998612071818118e-07,11618,2.192055,9.978626,8.476122
-0.1542251062826546,-2.1068389190637618,-1.123888469458524,-0.0003341172991805,0.0003686368690366,0.0005977150072325,4.452749789357397e-07,3.104037184599796e-07,-5.080051246916354e-07,11619,2.170756,9.899301,8.363648
-0.1293243871962768,-2.110763304121453,-1.121091677169118,-0.00036832635843,0.000402989542937,0.0006325860225468,2.187975526774525e-07,1.5679413906682025e-07,-2.697818887352509e-07,11620,2.17677,9.823283,8.270077
-0.0222026652748198,-2.109027764356044,-1.135028080597349,-0.0003905005483972,0.0004254953706287,0.0006355861959125,-6.87672090890316e-08,-3.4344435737039257e-08,3.8679075347398333e-08,11621,2.21154,9.749263,8.238572
0.096299622062493,-2.111423026357712,-1.139558585717766,-0.0004013005276099,0.0004368469379503,0.000608827055036,-4.251851741335287e-07,-2.2571551758519167e-07,3.274025354484366e-07,11622,2.280433,9.703544,8.301266
0.1411982989381655,-2.102550502995098,-1.1338321021168922,-0.0003994141943238,0.0004364500950921,0.0005522245472001,-7.733972705879393e-07,-3.7067577312158126e-07,5.183119701958764e-07,11623,2.353361,9.69804,8.460545
0.16774980364605,-2.060669843325241,-1.1415729382554225,-0.0003851231254961,0.0004252585614768,0.000470071469179,-9.987734389130647e-07,-4.566610054236258e-07,6.261370041880183e-07,11624,2.386966,9.719229,8.628952
0.2425016797946093,-1.998317134016558,-1.1600098718904293,-0.0003593942957771,0.0004052183962151,0.0003701877169779,-1.0869699629306432e-06,-5.155986300473423e-07,7.230225398043093e-07,11625,2.368813,9.730765,8.707221
0.3061737885987619,-1.9424654955339435,-1.1518213377291415,-0.0003228887193396,0.0003773352658777,0.0002561279001845,-1.1074011425885844e-06,-5.563858594714136e-07,8.015877487851946e-07,11626,2.331957,9.731778,8.65653
0.3071738810499651,-1.893338282951629,-1.104516269977178,-0.0002764184048944,0.0003419927254355,0.0001277574702798,-1.110991156635215e-06,-5.497498058384193e-07,7.853150011873752e-07,11627,2.351145,9.74483,8.567075
0.3152606632084798,-1.838586202241383,-1.0560149351244277,-0.0002209830124256,0.0002996306661998,-1.5347322992728457e-05,-1.1088942634389783e-06,-5.156365415353628e-07,7.191674608206442e-07,11628,2.413139,9.795489,8.505153
0.3968692862804102,-1.7771462619663856,-1.0316395539067864,-0.0001577396188406,0.0002503521995118,-0.0001759305718151,-1.1116133428346654e-06,-5.301481897045982e-07,7.627815828684638e-07,11629,2.46839,9.883763,8.444576
0.4918676915720871,-1.7155101396700292,-1.0127319939366506,-8.988624361519327e-05,0.0001960364805905,-0.0003523758043983,-1.1276036194764024e-06,-6.233307907044001e-07,9.725327285101151e-07,11630,2.515895,9.977227,8.358363
0.5067851328540895,-1.669102241418562,-0.980407177763281,-2.3094831503414143e-05,0.0001406834546766,-0.0005379942590134,-1.1311711820785142e-06,-7.589476846323957e-07,1.2737141065440843e-06,11631,2.58265,10.103392,8.334889
0.4484797445915772,-1.6248949896079057,-0.9322887500447714,3.48294987170059e-05,8.946332642071151e-05,-0.0007253539136731,-1.1197469662563375e-06,-8.883996517979641e-07,1.558871588531525e-06,11632,2.627426,10.242838,8.337426
0.3930878382400388,-1.5238352161141138,-0.87458721772429,7.270654792465544e-05,4.975415740563296e-05,-0.0009038758776697,-1.146519727459168e-06,-9.759080244268565e-07,1.7364153042351586e-06,11633,2.644782,10.378903,8.294758
0.3576444955315545,-1.3664199057984026,-0.8102833720338579,8.468584284511757e-05,2.4780068020611987e-05,-0.0010678984672083,-1.2149476022303054e-06,-9.93025706009422e-07,1.750237411890387e-06,11634,2.630575,10.529949,8.285921
0.29505640163544,-1.231098059661213,-0.7329044470140962,7.065920456283576e-05,1.3127852898795607e-05,-0.0012174807755887,-1.2692518602663433e-06,-9.364261685442572e-07,1.6084354525383782e-06,11635,2.580117,10.724913,8.318985
0.2098086605106078,-1.1493080665445976,-0.6530117061382437,3.123900241355551e-05,1.2357244293862156e-05,-0.0013528507998386,-1.3092121725170147e-06,-8.692303862027256e-07,1.4399973683286648e-06,11636,2.504289,10.96334,8.362125
0.1455494504941254,-1.102217491110257,-0.5909785428839807,-2.939102692923849e-05,1.671430509346147e-05,-0.0014771218565904,-1.3727135177268657e-06,-8.502100986780911e-07,1.3631408491469005e-06,11637,2.411937,11.216062,8.406747
0.1017030638915288,-1.08638727279627,-0.5411529421392911,-0.0001085782948116,2.0382153781209703e-05,-0.0015924070250273,-1.420900627305385e-06,-8.407939699950948e-07,1.3176571461685183e-06,11638,2.337694,11.458645,8.452314
0.0419088829453355,-1.0722494146888684,-0.487666047039782,-0.0002052742390703,1.7144289356528867e-05,-0.0016996374624694,-1.3735221023432647e-06,-7.835157353853634e-07,1.2065463238366028e-06,11639,2.269139,11.677336,8.409271
-0.0479960272663498,-1.015259673706936,-0.4288641396219456,-0.000314685618149,-3.978056370963014e-06,-0.0018031638713538,-1.2599861791787972e-06,-6.934905225133419e-07,1.0484095056745045e-06,11640,2.214014,11.883797,8.360118
-0.1178799427809004,-0.9320715985986584,-0.3741358038167235,-0.0004288698687436,-5.908895478325609e-05,-0.0019103771754849,-1.1863347751349036e-06,-6.131483609092333e-07,9.030574939998344e-07,11641,2.160153,12.095159,8.314728
-0.1464197113411944,-0.8328767294801618,-0.3317745520704852,-0.0005433469009118,-0.0001538364635841,-0.0020244398963654,-1.157815342893009e-06,-5.462687975315027e-07,7.766147841471982e-07,11642,2.076556,12.309064,8.249897
-0.2208442609796261,-0.6876737413611739,-0.2768340118669657,-0.000656569751329,-0.0002828277189106,-0.0021445612597767,-1.1250134013609708e-06,-4.846563881800311e-07,6.529852342387559e-07,11643,1.92868,12.543176,8.197421
-0.3575460817680203,-0.5266643323286915,-0.1791594760897142,-0.0007668605089363,-0.0004367667278606,-0.0022692919633042,-1.1397804745592105e-06,-4.35910527416921e-07,5.185965017531285e-07,11644,1.724296,12.787758,8.202866
-0.4239834207846153,-0.4134097588452888,-0.0685503689777991,-0.000874025244216,-0.0005967991337582,-0.0023944175423946,-1.2294619207109808e-06,-3.567036187076944e-07,2.791741010719046e-07,11645,1.46982,12.986342,8.210971
-0.4536276344990347,-0.3674075602549689,0.0286679231336722,-0.0009735444582028,-0.0007435834469888,-0.0025184412808165,-1.2314072242827444e-06,-1.7212736588390584e-07,-1.5055317185772793e-07,11646,1.190049,13.099105,8.060473
-0.6605347697537169,-0.374852537717441,0.1253241091028248,-0.0010557213801721,-0.000855891837469,-0.0026428687241064,-1.0075565179066245e-06,8.494073787798605e-08,-6.40392499495159e-07,11647,0.878448,13.078539,7.624296
-0.9674369198889372,-0.3849671293718941,0.161564132593011,-0.0011090274835864,-0.0008988413565336,-0.0027678279235636,-7.049191453223289e-07,2.8874081716605586e-07,-9.750252051119155e-07,11648,0.427766,12.833618,6.961892
-1.1541692127597614,-0.3558769673820913,0.0800579098698412,-0.0011176223134267,-0.0008225764051125,-0.0028934308835275,-5.759871517551311e-07,3.7084369097715833e-07,-1.1090465533530697e-06,11649,0.23096,12.44264,5.84778
-1.3127332454336094,-0.322003476693976,0.013124267606173,-0.001073630127678,-0.0006256115539767,-0.0030188648111684,-6.531763551221944e-07,3.570621693632429e-07,-1.1197063560685045e-06,11650,0.646495,12.498946,4.966942
-1.5380633865605493,-0.3148498039199072,0.096839221861649,-0.0009782150488259,-0.0003602708349232,-0.0031417334742301,-7.825461116545744e-07,3.168033826947055e-07,-1.1034492278942396e-06,11651,0.691797,13.129263,5.395926
-1.7297482361898782,-0.3068479463001341,0.2339320460850809,-0.0008342368074921,-0.0001072039659817,-0.0032592302682657,-8.558242606386042e-07,3.505770831058219e-07,-1.2367284537665916e-06,11652,0.372476,13.875885,6.715796
-1.8734537039664727,-0.2911693363007956,0.2921335476464617,-0.0006506612809065,-2.758640683235634e-06,-0.0033674774522975,-8.062452927198282e-07,5.480241527130466e-07,-1.682264203659568e-06,11653,-0.134037,14.27309,7.001673
-1.9951194734895736,-0.2801436211995528,0.2963136171555237,-0.0004365100459866,-8.994746119992216e-05,-0.0034609058755618,-5.159222575259917e-07,8.732466043726622e-07,-2.3009170787677534e-06,11654,-0.560718,14.371252,6.122729
-2.0641484800183294,-0.2630626082683722,0.3023621017809472,-0.0002013910555665,-0.0003086510774548,-0.0035318273786891,5.766636643284149e-09,1.1469314209918307e-06,-2.691424833176853e-06,11655,-0.671878,14.549162,5.235557
-2.0995938314766898,-0.2507461285672653,0.3101230395345002,3.629036283304705e-05,-0.0005843819708375,-0.0035694317355805,5.01361849877766e-07,1.2135723492410513e-06,-2.6164507065002305e-06,11656,-0.519482,14.821878,4.640707
-2.065707481779566,-0.2415941021846981,0.3154154125531359,0.0002487171165879,-0.0007777719962627,-0.0035586725176573,7.472253903460877e-07,1.0713147307586843e-06,-2.174352724081815e-06,11657,-0.305651,15.14399,4.414849
-1.840829805012804,-0.177528310424541,0.3164896278042487,0.0004216581349275,-0.0008359866717893,-0.0034966235047762,7.777649314599354e-07,8.120284297415534e-07,-1.5659088010529596e-06,11658,-0.104236,15.425241,4.374763
-1.4981106601272929,-0.0424322587608482,0.3093392581449534,0.0005543797922253,-0.0008058593018644,-0.0033939458309798,7.230768988661109e-07,5.308719132746638e-07,-9.494411641526984e-07,11659,0.135853,15.658867,4.443582
-1.2327771836455763,0.1049620232718714,0.3055231867374021,0.000647972611819,-0.0007228627338011,-0.003267559337278,6.410126672873525e-07,3.023188871914239e-07,-4.580712423227782e-07,11660,0.415795,15.8744,4.495625
-1.0759741485474366,0.2056687438902822,0.3089217221491752,0.0007123210675256,-0.0006576894070832,-0.0031474868317524,5.741566442192748e-07,1.5702225845085965e-07,-1.383525186255297e-07,11661,0.660878,16.080607,4.479119
-0.9719557476475192,0.2604909287163246,0.3056497241227619,0.000750006953586,-0.0006400650052654,-0.0030451596329008,5.807786195077268e-07,6.880883824167495e-08,8.6266817025049e-08,11662,0.806439,16.263604,4.34668
-0.8325825477270904,0.334170179804464,0.2905289488257461,0.0007555267592282,-0.0006460572775473,-0.0029516520703147,6.586707287730275e-07,-4.31710576467839e-09,3.019154660914641e-07,11663,0.875455,16.391794,4.085639
-0.559210755677755,0.4463674889660268,0.2696336470195634,0.0007291698221111,-0.0006708552412525,-0.0028580307176889,7.589416864127337e-07,-6.751534583911292e-08,5.015616790637718e-07,11664,0.898596,16.523412,3.810936
-0.2219916443757556,0.5296453893663664,0.2483177309415344,0.0006734580125448,-0.0007056988579039,-0.0027454850132618,8.480580796714523e-07,-1.1414107104610401e-07,6.599180207304885e-07,11665,0.944431,16.705749,3.623369
0.0085015733318214,0.551823833640938,0.2321387151465377,0.0005887970753785,-0.0007462202212618,-0.0026076463503633,8.883073185975499e-07,-1.775063762941688e-07,8.319526166276297e-07,11666,1.053027,16.922598,3.545175
0.1021972706371148,0.5598689509220776,0.222052756546257,0.0004749992807393,-0.0008004551563916,-0.0024531523727415,8.656576063526519e-07,-2.82327815973068e-07,1.0664946689221207e-06,11667,1.19986,17.153685,3.532246
0.1483462765245333,0.5890700133807198,0.2089397947407824,0.0003311541632275,-0.0008672112772897,-0.0022874045227238,8.368520743740489e-07,-4.04967214931578e-07,1.343363935431684e-06,11668,1.377728,17.389263,3.585652
0.2143581506139884,0.6352186480698092,0.1951408275452038,0.0001549146535443,-0.0009400063074626,-0.0021193482193441,8.040013385055929e-07,-5.414015549508789e-07,1.6549932983804536e-06,11669,1.533761,17.613757,3.646709
0.3505167478650002,0.6893748588107296,0.1914794075242776,-5.1212992326795954e-05,-0.0010129256833922,-0.0019515574169955,6.710922913354386e-07,-6.997223390359913e-07,1.964253980978752e-06,11670,1.590476,17.811365,3.69256
0.5532944616648567,0.7193784167748869,0.1901939645522732,-0.0002792650350562,-0.0010771050926238,-0.0017777216717855,4.7448224052706373e-07,-7.985845319269776e-07,2.096154172099368e-06,11671,1.57116,17.987539,3.694556
0.7123572805408007,0.7248518113400978,0.1889451183257229,-0.0005185221752735,-0.0011198580619817,-0.0015920978131283,4.149325282791922e-07,-7.409904833835361e-07,1.9272256358283837e-06,11672,1.462166,18.14101,3.642965
0.7612139535122193,0.792373876653416,0.1908812381846886,-0.0007527930306084,-0.0011237530213203,-0.0013856457423424,5.608612308112695e-07,-5.823654186038244e-07,1.617825530354548e-06,11673,1.258401,18.253484,3.499155
0.7635352815110258,0.9395805790458468,0.2021340740094346,-0.0009726946834451,-0.0010864080457661,-0.0011550679847123,7.963298636958623e-07,-4.2764867698241074e-07,1.3531824693622157e-06,11674,1.014287,18.276789,3.222331
0.7757242117550134,1.0455827523835324,0.264178167862765,-0.0011761729723499,-0.0010225361008445,-0.000904330258403,1.0403244110995956e-06,-2.5038565200801654e-07,1.04441322103004e-06,11675,0.685546,18.164329,2.520692
0.7891344025439314,1.0396299929392392,0.3649040629833163,-0.0013603503868451,-0.00095519886194,-0.0006375574583757,1.2252939348748465e-06,-1.2130741883279406e-08,5.81688542881213e-07,11676,0.909502,18.386742,1.970757
0.7965875747393278,0.989606210767742,0.4341211881638579,-0.0015250787129762,-0.0009244258558958,-0.0003623695709216,1.182750295558772e-06,1.9178971885413766e-07,9.975063183738933e-08,11677,0.553547,18.901212,2.379967
0.7738413190328338,0.9647072499782764,0.5106419728853074,-0.0016654712519518,-0.0009504800074737,-8.597631345164374e-05,8.295700220732427e-07,2.666363853813634e-07,-2.3426026824539606e-07,11678,0.200912,19.341432,3.67872
0.6895642413219625,0.9352446122248748,0.6491840284536123,-0.0017706734885557,-0.0010325278977775,0.0001849355523595,3.444548235604301e-07,2.7288773403536706e-07,-4.800748565398083e-07,11679,-0.175905,19.429231,4.209258
0.5964946719584582,0.8125136020335537,0.7471236704820021,-0.0018297965647488,-0.0011737869357458,0.0004387262538716,-1.4058582009801557e-08,3.293762945470829e-07,-7.890133425035133e-07,11680,-0.533251,19.195895,3.756552
0.5614044198836349,0.5830806510150325,0.7257614649539126,-0.0018292127870751,-0.0013713840201045,0.0006587954868524,-1.59708976866266e-07,4.606960501781829e-07,-1.1764456672352584e-06,11681,-0.733741,19.016879,3.352404
0.5746150199070683,0.4074033987044437,0.6659130382473601,-0.0017615138670317,-0.0016152843267107,0.0008352610765813,-1.7777793655606516e-07,6.493687963951927e-07,-1.6343265160257458e-06,11682,-0.853439,18.83817,3.087861
0.6171313676766447,0.3755415602490533,0.64160135613835,-0.0016268474057849,-0.0018881684203445,0.0009646920686193,-1.980576717024685e-07,8.952544342234276e-07,-2.210183703209001e-06,11683,-1.05522,18.562886,2.843744
0.6890672968204394,0.312874921829097,0.6607870427573268,-0.0014271126569415,-0.0021550526663465,0.0010443304528205,-3.22427724964203e-07,1.1290197361268984e-06,-2.7961162232880364e-06,11684,-1.353284,18.145928,2.437908
0.8263685094039301,0.1425257410087799,0.7077682006206301,-0.0011695594094409,-0.0023587016122641,0.0010754651375506,-5.77646198027208e-07,1.229749210076295e-06,-3.142945169381465e-06,11685,-1.611295,17.638038,1.94694
1.1005531116638236,0.0240664673822682,0.7119837014483458,-0.0008634147866427,-0.0024778301813858,0.0010549270106978,-9.074942436473966e-07,1.1575949873945243e-06,-3.13401849141785e-06,11686,-1.703842,17.102504,1.493544
1.4512530592781097,-0.0106868974375,0.6296422056298887,-0.0005207903256601,-0.0025285467053947,0.0009744722551423,-1.224521670674126e-06,9.848901561279392e-07,-2.8845082000031867e-06,11687,-1.673058,16.596116,1.162067
1.6685927591784304,-0.0603665306153774,0.5140854085390485,-0.0001632664766376,-0.0025337932709881,0.0008275263512637,-1.4423827918231994e-06,8.294326177602613e-07,-2.622460584160383e-06,11688,-1.603963,16.161236,0.93386
1.6774973723737152,-0.0951162567863694,0.4307399993455095,0.0001763988737456,-0.002542261654427,0.0006068787473934,-1.5187537886138878e-06,7.541186541183487e-07,-2.478111740450276e-06,11689,-1.521588,15.777848,0.730502
1.601339373766122,-0.0502108164754879,0.4070381884776706,0.0004815163198447,-0.0025700981401156,0.0003124808007309,-1.5075356383678049e-06,7.212348715020534e-07,-2.3936442640662823e-06,11690,-1.416855,15.472756,0.50285
1.525674266872613,0.0190587285764823,0.4225675088757654,0.0007516862485808,-0.0025966293615738,-4.651112885964816e-05,-1.473074000805865e-06,6.735576414898114e-07,-2.267175099817649e-06,11691,-1.293103,15.260953,0.291324
1.4546608215406494,0.0466011713339534,0.4207610179024509,0.000988253994622,-0.0026069197098272,-0.0004556740391485,-1.3937231447471085e-06,5.918813424044799e-07,-2.046623486424824e-06,11692,-1.149442,15.119258,0.027057
1.3941165656726746,0.0330025625695119,0.3803245621816342,0.0012026186404368,-0.0025745446209498,-0.0008908918147488,-1.2406228415375809e-06,4.600073676304565e-07,-1.6853191367329484e-06,11693,-0.99271,15.054464,-0.193704
1.330430471140494,0.006544296570085,0.32908699215389,0.0013977873840752,-0.0024914351222417,-0.0013307261402522,-1.0141807380741965e-06,2.79749983236198e-07,-1.183525536978106e-06,11694,-0.816278,15.073379,-0.36339
1.2470091919369115,0.0030047206185574,0.2882449276526766,0.0015673372608926,-0.0023736985979368,-0.0017553607675535,-6.817469895483719e-07,1.1463090589094165e-07,-6.613273395587805e-07,11695,-0.593977,15.135905,-0.475943
1.1504628911096124,0.0206940057819502,0.2519762858124749,0.0017115636437887,-0.0022352721246216,-0.0021346069794379,-2.2374345860348762e-07,4.5183877096306687e-08,-2.890869511449444e-07,11696,-0.355408,15.250444,-0.584331
1.0534361302500348,0.0452845085300578,0.2139117261137177,0.0018333520691067,-0.0020986149831081,-0.0024284873591033,2.9718078992148944e-07,7.598370735740385e-08,-1.1026144904177337e-07,11697,-0.122217,15.428886,-0.635558
0.9638137838123836,0.0991719090634482,0.1807716018950038,0.0019319106346943,-0.0019733119436352,-0.0026129567122313,8.04779271749042e-07,1.286620652063566e-07,1.1514127719828968e-08,11698,0.086277,15.655936,-0.668328
0.8716315129929636,0.1697664236452812,0.1557491811701374,0.0020042968726196,-0.0018523578244919,-0.0026798503123739,1.3116203733734083e-06,1.5802507915424053e-07,1.81377141352766e-07,11699,0.305706,15.922363,-0.762857
0.7802601300247274,0.2264458822942772,0.1325271603776002,0.0020455547552523,-0.0017304226683473,-0.0026250818755768,1.8708600273350647e-06,1.987391978961492e-07,3.453706484659091e-07,11700,0.501999,16.190342,-0.915208
0.7018611494763928,0.2761924173444929,0.1042809419507272,0.0020471476722978,-0.0015963956419629,-0.0024569548361018,2.485421551614648e-06,2.621713835140207e-07,4.770185060999482e-07,11701,0.679883,16.438577,-1.169597
0.5942421533740355,0.2973338456847414,0.0722746611919656,0.0020043124528611,-0.0014423757351689,-0.0021780695880885,3.176865935876073e-06,3.171963484153174e-07,6.554214327830031e-07,11702,0.862118,16.632835,-1.427614
0.4238798720505611,0.3748400488606547,0.0442998629926604,0.0019160117581175,-0.0012650823183951,-0.0017856331842719,4.0112653413833015e-06,3.837299101157435e-07,8.719781806121915e-07,11703,1.07607,16.785692,-1.711606
0.2540116970587782,0.7283447024088339,0.0187565584557525,0.0017801331575519,-0.0010547016512304,-0.0012888638630672,4.923110119122616e-06,4.899381211584137e-07,1.040366178825795e-06,11704,1.356322,16.896771,-2.035911
0.1393417952889697,1.2304987056888808,-0.0294474487357152,0.0015952938065874,-0.0007965638039098,-0.0007068501479197,5.6679073189400745e-06,5.490969027710157e-07,1.2500220815362204e-06,11705,1.625495,16.968628,-2.571816
0.0516720464535125,1.4397041903544698,-0.1170397756045596,0.0013618243836362,-0.0004847290028695,-4.930735844021518e-05,6.0889043003905645e-06,4.470158421626129e-07,1.69128084194714e-06,11706,1.862567,16.978285,-3.018356
-0.0149165193459291,1.3450454496902409,-0.1799664728190341,0.0010817684689275,-0.0001215213785596,0.0006814081124698,6.278682285992421e-06,2.3478728322600667e-07,2.2868135484577204e-06,11707,2.148482,16.945192,-2.968676
-0.0909221472832915,1.3200866994573563,-0.1771917151169349,0.0007602814147735,0.0002873524483945,0.0014811763223511,6.37713120929135e-06,8.12495963630883e-08,2.7059531465766305e-06,11708,2.38039,16.861697,-2.595673
-0.2841921082065012,1.3922564418767696,-0.2832189373847037,0.0004066573996625,0.0007283379455689,0.0023482714351157,6.414374182939245e-06,6.416346145670433e-08,2.773788275385753e-06,11709,2.546814,16.755358,-2.003865
-0.5432102125151019,1.340321999273259,-0.644829679671814,3.3822774414340355e-05,0.0011893124926439,0.00326480881633,6.388565777215852e-06,1.375349285438527e-07,2.588902358981268e-06,11710,2.434724,16.576447,-1.947151
-0.6735238211290098,1.1790750752733472,-1.0242097753488368,-0.0003398935914325,0.0016586762715153,0.0041931280617164,6.278392126709731e-06,2.513809392043909e-07,2.2602939829727942e-06,11711,2.076845,16.306029,-2.289625
-0.6605556971858777,1.0149894856172887,-1.147339844476165,-0.0006875115815277,0.002115474903884,0.0050843853955935,5.950853301500255e-06,3.3612122548721014e-07,1.896067246585488e-06,11712,1.638942,15.96393,-2.538332
-0.633945741961648,0.8618042580955352,-1.1516349167569526,-0.0009706632582344,0.0025293861580544,0.0058689487041425,5.2457677871918106e-06,2.591184777208787e-07,1.7347181589796166e-06,11713,1.20987,15.538308,-2.168832
-0.6144769596425432,0.7109577767634352,-1.2232310758922282,-0.0011740308865859,0.0028835237860703,0.0065087638813062,4.205071586650321e-06,-3.103815110558234e-09,1.856893712989938e-06,11714,0.909496,15.03199,-1.339709
-0.5368963568745344,0.5731607922038598,-1.2766969698837762,-0.0013073133994344,0.0031741624260766,0.0070003493302387,3.030258741230816e-06,-3.121623147868136e-07,2.042979179269015e-06,11715,0.780221,14.511568,-0.231874
-0.4139538444893826,0.4315360354205071,-1.2826640462146122,-0.0013879745637608,0.0033994958917387,0.0073427284340662,1.843691410891087e-06,-5.892121006050429e-07,2.1610122815031216e-06,11716,0.772169,14.039654,0.697331
-0.330129165045367,0.1913192938118407,-1.3117071621720573,-0.0014538522527372,0.0035664928311286,0.0075543839483101,6.861341911913633e-07,-8.591195699865178e-07,2.271460782410213e-06,11717,0.691919,13.622598,1.532443
-0.3007792842677388,-0.1169704924769887,-1.2908394227515072,-0.0015191831074193,0.0036742088075222,0.0076430873109131,-3.9978136578986185e-07,-1.0964787940952952e-06,2.331486285958088e-06,11718,0.46724,13.247902,2.213948
-0.2384061468570294,-0.2897807865130022,-1.1694587001631116,-0.0015723511852893,0.003712929095095,0.0076045134205195,-1.4104464637462512e-06,-1.236033891552124e-06,2.203975086271816e-06,11719,0.173688,12.906172,2.902694
-0.1151797741417181,-0.2729401172692829,-1.0468677744445776,-0.0016075295627785,0.0036780832823916,0.0074530326974348,-2.3717847097312344e-06,-1.300227596198631e-06,1.9351741091246567e-06,11720,-0.1064,12.549655,3.580138
-0.0276199373280927,-0.2174780519067113,-0.9624019925386242,-0.0016124701571777,0.0035663285940075,0.0072169243865322,-3.274708554749713e-06,-1.3708728648309945e-06,1.707610774338287e-06,11721,-0.374754,12.146586,4.242177
-0.0204340385628941,-0.2125610860547056,-0.8783774789364626,-0.0015835146962835,0.0033764566455935,0.0069070236534666,-4.102834726185077e-06,-1.4540690182481055e-06,1.53640415338584e-06,11722,-0.638138,11.729913,4.930162
-0.0418638400520079,-0.2075566885510551,-0.800955841643152,-0.0015293084942217,0.0031115711636418,0.0065194035888568,-4.899658098255016e-06,-1.5221386169356772e-06,1.347862897393632e-06,11723,-0.870203,11.332633,5.681579
-0.062489996815852,-0.1539226990297072,-0.6979695279553283,-0.0014547383468509,0.0027768213437839,0.0060478427069978,-5.712840730753913e-06,-1.6095397781543748e-06,1.2079726816213698e-06,11724,-1.073026,10.953726,6.432003
-0.0582418881443179,-0.0605035832936621,-0.5111015931536825,-0.0013660287525003,0.0023811517161615,0.0054755561234148,-6.50799959622031e-06,-1.7308701871302628e-06,1.1611249953913736e-06,11725,-1.244072,10.548217,7.040186
-0.0271028992297788,0.0069420292039817,-0.2762630072082131,-0.0012683834133479,0.0019416868678918,0.0048023102237871,-7.204662061551484e-06,-1.8463410849272507e-06,1.1429269080678254e-06,11726,-1.39319,10.066762,7.424633
-0.0416439071606456,0.0156669835104864,-0.0522581583611591,-0.0011642623603525,0.0014858897653582,0.0040466857163169,-7.709137936092947e-06,-1.9138471351970044e-06,1.0965396206291269e-06,11727,-1.519208,9.546713,7.590593
-0.0349262204741743,0.0933547430005322,0.1546728979987934,-0.0010586602691351,0.0010541523950743,0.0032278637723092,-7.953500903631376e-06,-1.8777016133058133e-06,9.265609736492426e-07,11728,-1.576869,9.076977,7.560966
0.1530456903263584,0.3215063375339293,0.3480340984031155,-0.0009582196036746,0.0007051098811168,0.0023745136388787,-7.97670088950877e-06,-1.7129998035620754e-06,5.530270904933906e-07,11729,-1.640473,8.740617,7.410997
0.3970183397728197,0.544253482658784,0.5070312548596748,-0.0008657821729544,0.0004645125284831,0.0015075863006884,-7.839925393140454e-06,-1.460953558049123e-06,3.6485438999736874e-08,11730,-1.723269,8.570264,7.209378
0.4962545377612005,0.6039347689947232,0.5930267002103176,-0.0007805630164543,0.0003226385768999,0.000638788613855,-7.510921698580643e-06,-1.1437948612983556e-06,-5.518592607581478e-07,11731,-1.938277,8.559995,7.160751
0.4507005074327666,0.5422092660873437,0.6162033968089577,-0.00069963576064,0.0002614749656759,-0.0002133084533941,-6.984804159439252e-06,-7.488287825425654e-07,-1.227516070105818e-06,11732,-2.282195,8.6345,7.294977
0.2308413352514984,0.4868471658020417,0.6754156882265847,-0.0006159582264826,0.000236928756229,-0.0010272550135165,-6.4169121758466985e-06,-3.281419194139296e-07,-1.941319570295879e-06,11733,-2.559074,8.490468,6.819165
-0.1631625505124798,0.4765659378548605,0.8321177766798963,-0.0005212462384788,0.0002025676285356,-0.0017923691772844,-5.98935706798479e-06,1.0972695743809891e-08,-2.5418187089539883e-06,11734,-2.350946,8.599888,6.20675
-0.5560805909432956,0.3855401255244111,1.002816344622781,-0.0004049882935554,0.0001064221438366,-0.0025085994632935,-5.69443900628856e-06,2.7406575942436985e-07,-3.041272798284253e-06,11735,-2.530677,9.36664,6.611385
-0.83991425534837,0.098433760641992,1.081043668584687,-0.0002500035616801,-0.0001426080371191,-0.0031843788553983,-5.377290496212413e-06,5.851574834015687e-07,-3.639911817252892e-06,11736,-2.926583,10.440287,8.017092
-1.01133873413148,-0.1946311246561056,1.0664958037789478,-3.121240282191653e-05,-0.0006787954756575,-0.003842480590613,-4.929808282032334e-06,9.601752758226836e-07,-4.3156185813581605e-06,11737,-3.38271,11.009926,8.706075
-1.0198919671864393,-0.2771299211612902,1.0187238907297531,0.0002546437552052,-0.0015047385114416,-0.0044864542200945,-4.323048246699248e-06,1.2639249836053291e-06,-4.750630527545978e-06,11738,-3.666587,10.948179,7.807082
-0.92690011118633,-0.3688493111483287,0.9693240980843838,0.000586691499194,-0.0024772564568819,-0.0050995919686463,-3.555573826275147e-06,1.4019668537640595e-06,-4.735281443305225e-06,11739,-3.633494,10.86219,6.548812
-0.8693772210472935,-0.6729577604415364,0.9025748019961668,0.0009328497634229,-0.0034343964943308,-0.0056655984658352,-2.6823174542009032e-06,1.3793220305596742e-06,-4.306934917471532e-06,11740,-3.278457,10.920675,5.529905
-0.8169058642240243,-0.919643274131446,0.8155328698422761,0.0012375930843752,-0.0041325042939936,-0.0061586374511359,-1.818935533242093e-06,1.216211064232433e-06,-3.563148321694061e-06,11741,-2.882779,11.153036,4.906516
-0.7312143356318254,-0.9013080604603178,0.7480500894990756,0.0014745820858945,-0.0044618690344527,-0.006563370759103,-1.0270036406501905e-06,9.669210769758828e-07,-2.658070369751294e-06,11742,-2.534768,11.423541,4.390923
-0.5704155995700543,-0.7856224849143976,0.7174803093680303,0.0016489620941506,-0.0044728171064308,-0.0068772136652602,-2.3374834804171606e-07,7.735480334081057e-07,-1.8791002941278765e-06,11743,-2.182533,11.605386,3.661944
-0.2356248040983503,-0.7046880155170334,0.7049525968496747,0.0017620039051121,-0.0042324383519975,-0.0070928895251493,6.844600945579356e-07,7.636533072858679e-07,-1.4455205103402786e-06,11744,-1.797852,11.778696,2.74479
0.1263981127443483,-0.6314501590512416,0.6964175024217103,0.0018262702423411,-0.0039023985876934,-0.0072040621972736,1.7536051404612243e-06,9.118591815613954e-07,-1.2857304215874762e-06,11745,-1.453036,12.082042,1.896673
0.2659473846976998,-0.5666777095851189,0.6757728863287932,0.0018482974626767,-0.0035526097902592,-0.0072039195119276,2.8557703450665524e-06,1.075031545163124e-06,-1.149836419863333e-06,11746,-1.137782,12.517222,1.217295
0.2213075626596674,-0.5156762529321544,0.6354156353821592,0.001826070598117,-0.0031480008535366,-0.0070833881680986,3.871346123155756e-06,1.1686515572278909e-06,-9.146937944148248e-07,11747,-0.89878,13.03878,0.754416
0.1805135367023181,-0.4618109144508939,0.5941161087293754,0.0017705355460397,-0.002706828840244,-0.0068361386849459,4.807720831557006e-06,1.2480345398260284e-06,-6.935998533283097e-07,11748,-0.727232,13.611666,0.503803
0.1797800936289642,-0.4011446248414417,0.5603508146387542,0.0017025930978357,-0.00225405136324,-0.0064580042030663,5.718517380043928e-06,1.3864535517285626e-06,-6.188244007577041e-07,11749,-0.597036,14.176964,0.359248
0.1436638757517479,-0.3184865003204339,0.5259661019806032,0.0016303684311473,-0.0018005912528243,-0.0059450383229502,6.623682655769213e-06,1.5670647848370055e-06,-6.450990523791618e-07,11750,-0.473853,14.718225,0.283058
0.0677316138913853,-0.2288563177993688,0.4961234962212374,0.0015510797084036,-0.0013589011067889,-0.0052946019680295,7.539373237717249e-06,1.7358139719937445e-06,-6.404430189690053e-07,11751,-0.320911,15.241625,0.252968
0.0175530936597275,-0.1563944330844383,0.4763370710696452,0.0014601405633579,-0.0009187645861347,-0.00450649531233,8.450687120571757e-06,1.8667756188644064e-06,-5.410069727424145e-07,11752,-0.147015,15.758151,0.252881
0.0104284318530611,-0.0556385285882216,0.4484064516282832,0.0013451127038639,-0.0004431591581947,-0.0035835005486993,9.257064478508876e-06,1.9166749056839708e-06,-2.926570356896782e-07,11753,0.063873,16.259998,0.278441
-0.0179409096821718,0.1083756859807902,0.4021724360156706,0.0011990387190624,8.70211249355548e-05,-0.0025293942158774,9.859960350733988e-06,1.807336002729723e-06,2.2316250784130378e-07,11754,0.275128,16.684011,0.265633
-0.10878890797943,0.3488262353991621,0.3657802571075795,0.0010207413451044,0.0006781460000333,-0.001349872585795,1.0286186067104993e-05,1.5497663177753965e-06,9.87933820148142e-07,11755,0.493404,17.010238,0.394143
-0.216592957082814,0.7139255868222064,0.3308733565544072,0.0008030350487681,0.0013515402213784,-5.529479987549527e-05,1.058133598047538e-05,1.2636512181416317e-06,1.7612148826627897e-06,11756,0.737699,17.147945,0.583398
-0.301844698450789,1.1411392816681476,0.2224392195541598,0.0005352087727878,0.0021368143298708,0.001338355333524,1.0643288921540238e-05,1.006734590868266e-06,2.372166682943105e-06,11757,0.995617,17.056627,0.676955
-0.40818337447277,1.4230387850402346,0.005575359925896,0.0002190475595493,0.0030234745831578,0.0028047332928344,1.0342491923229748e-05,7.225509144687136e-07,2.8822435111176877e-06,11758,1.260816,16.847712,0.651933
-0.5760212282284884,1.4727071772729683,-0.2779153573413621,-0.0001306343643423,0.003957313528896,0.0043035833209216,9.708887531096337e-06,3.623183968723275e-07,3.4055493888989085e-06,11759,1.460727,16.645989,1.060881
-0.7306672147201767,1.4148890214935974,-0.5688364298832148,-0.0004903040747077,0.0048533651692375,0.0057778563861683,8.833185614917655e-06,-3.2141739114613024e-08,3.89213714104498e-06,11760,1.599166,16.433004,2.117693
-0.7729093212155382,1.339284558910955,-0.8076332871625944,-0.0008208048033696,0.0055730187785957,0.0071467230756967,7.703449450043139e-06,-3.9082142997090913e-07,4.190519350333378e-06,11761,1.540035,16.186359,3.368962
-0.7207781938371733,1.218450707003104,-0.9281088462687764,-0.0011044825687687,0.0060539882100948,0.008358468290165,6.303335930736067e-06,-7.016177439379561e-07,4.269356369707342e-06,11762,1.317991,15.741289,4.303501
-0.6476099631839558,1.0626746843891046,-0.9240873838584266,-0.0013466589345357,0.0063157221085755,0.0093911438615024,4.733913375931973e-06,-9.73007327481906e-07,4.189929590468537e-06,11763,1.001295,15.123423,5.158603
-0.5979150815892407,0.918137144717072,-0.8724450260349176,-0.0015525371296652,0.0063798177805541,0.0102204001864183,3.0790476892133635e-06,-1.218196583338757e-06,4.020358515084513e-06,11764,0.683947,14.382948,6.205048
-0.5593245427946065,0.7405418542675863,-0.8334153363906999,-0.0017384499805207,0.006310143188396,0.0108343473382037,1.3230725342488343e-06,-1.4772887395356138e-06,3.843276642003239e-06,11765,0.416299,13.517883,7.360912
-0.4316350460295703,0.4161029691144577,-0.8099162747238317,-0.0019100913344172,0.006136288545504,0.0112219872857597,-5.1186998239861e-07,-1.741100510823613e-06,3.641217877915728e-06,11766,0.17909,12.598351,8.591621
-0.1973764943849516,0.0041116573263682,-0.7800541107061447,-0.0020603112552914,0.0058472865724177,0.0113727635794277,-2.330326754676098e-06,-1.9365170891520844e-06,3.291106133801405e-06,11767,-0.10349,11.699298,9.700779
-0.020542173488515,-0.2692604357195614,-0.7284294915698298,-0.0021888579823735,0.0054632897225952,0.0112969566209217,-4.0475896785750245e-06,-2.0197533996186176e-06,2.740035050333696e-06,11768,-0.449815,10.836149,10.690035
0.0292323524133353,-0.3591799105266201,-0.6611440300153824,-0.0022967999469388,0.0050182704040371,0.0110271720302889,-5.60382064009844e-06,-2.0072232643657917e-06,2.053345392928396e-06,11769,-0.869047,10.053406,11.659553
0.0821060025070923,-0.3904380197293219,-0.5914365835425607,-0.0023835368014898,0.0045284262950186,0.0105761056848634,-6.979009683781792e-06,-1.9336952773272392e-06,1.311085489394566e-06,11770,-1.325594,9.369978,12.581996
0.2175571400691603,-0.4035635556668628,-0.5258797044939015,-0.0024488691577911,0.003999187590013,0.0099394448333694,-8.214689612803922e-06,-1.839801495088324e-06,5.842609458803063e-07,11771,-1.739682,8.76783,13.439613
0.3996594095997946,-0.3784736668151846,-0.4599257473524942,-0.0024904484856553,0.0034285847724446,0.0091203594546853,-9.352005063284322e-06,-1.7801287124171486e-06,-1.9533790150476608e-08,11772,-2.064366,8.18833,14.1456
0.5820121553378181,-0.337969260516738,-0.4025750103262238,-0.0025033719718385,0.0027997031090186,0.0081205640621067,-1.0375607292004768e-05,-1.7648763023997168e-06,-4.720432033070079e-07,11773,-2.409949,7.509256,14.669293
0.7051808056066886,-0.3174836475261924,-0.3676033616045486,-0.0024859186505335,0.0021154803333868,0.0069528725511443,-1.1268971368264854e-05,-1.7596951209597971e-06,-8.459302251483441e-07,11774,-2.743666,6.831867,15.121652
0.7423648238766517,-0.3053941618961611,-0.3335378311172643,-0.002439308743199,0.0013996060128596,0.0056455474053377,-1.2061442384469149e-05,-1.7847013921794897e-06,-1.1101595616291034e-06,11775,-2.972666,6.307218,15.49722
0.7326500740624796,-0.2414424859000371,-0.2858897869107132,-0.0023647640263154,0.0006748603684273,0.0042325897957938,-1.2718629715963728e-05,-1.8688291728480544e-06,-1.1898062808660771e-06,11776,-3.122531,5.923993,15.701321
0.7163861295847374,-0.0786568637288429,-0.208807401599107,-0.0022650159055197,-2.6830005578515987e-05,0.0027606497291161,-1.310285285738904e-05,-1.93756342759175e-06,-1.1971571398507042e-06,11777,-3.274751,5.612094,15.768268
0.7053790280044517,0.1391584607746211,-0.0125346253738816,-0.0021403587944622,-0.0006707435265322,0.001265938495585,-1.3164796550264331e-05,-1.905644372001752e-06,-1.299114038149939e-06,11778,-3.401706,5.299701,15.503224
0.7061891446952094,0.3016675866770513,0.3407130094753161,-0.0019881729634699,-0.0012191562242075,-0.0002263831483743,-1.2972770159311746e-05,-1.8133977713627469e-06,-1.4287799836325554e-06,11779,-3.529776,5.151626,15.166402
0.7021769980360165,0.3456199865895545,0.679043169552753,-0.0018057723271457,-0.0016175015213533,-0.0016839022494115,-1.2519208449303044e-05,-1.728467700906333e-06,-1.431838971009122e-06,11780,-3.673784,5.191432,14.74219
0.6290264174229536,0.3122598676985196,0.796949508522558,-0.0015890461162905,-0.0017920608564346,-0.0030721312703568,-1.17501507474956e-05,-1.5984391388748666e-06,-1.4076521783626837e-06,11781,-3.900399,5.339549,14.174063
0.5413158786946219,0.275516785752843,0.7720303873857515,-0.0013337555376627,-0.0017479083812288,-0.0043685974384827,-1.07422155745189e-05,-1.3363141712299672e-06,-1.586544142449942e-06,11782,-4.12277,5.268892,12.883331
0.5092750618334914,0.2622409103906603,0.8581838164313295,-0.0010355138882318,-0.0015793775478654,-0.005562965114593,-9.657795143090943e-06,-9.38769855831791e-07,-2.0484468015062686e-06,11783,-3.644978,5.600463,11.598922
0.3027268870587866,0.287824242136147,1.0591954545630555,-0.0006876492107839,-0.0014330541849937,-0.0066559781008802,-8.575618235711135e-06,-4.263638152518712e-07,-2.785749973319589e-06,11784,-3.937128,6.817936,11.653395
-0.1962344794758713,0.304842690798738,1.1524373964704484,-0.0002810219570169,-0.0015530458232507,-0.0076661938624521,-7.482686986321985e-06,1.946472771031971e-07,-3.773886228508079e-06,11785,-4.470712,8.251526,12.784012
-0.6095161996071501,0.1729276990762655,1.0759390668703848,0.0001863837005531,-0.0020174321329109,-0.008593879019497,-6.3667877379452266e-06,8.4514168739592e-07,-4.813618852100129e-06,11786,-4.924464,9.198717,13.395387
-0.657672864666679,-0.1128995641675728,0.9742299669989424,0.0007087618919312,-0.0027213117171764,-0.0094210292613483,-5.200355895226651e-06,1.3635836130104455e-06,-5.519259817259771e-06,11787,-5.138874,9.569584,12.526741
-0.5567899173456656,-0.3902413107154611,0.8912310369878067,0.0012764248411021,-0.003531146180028,-0.0101353441392542,-3.90408118297224e-06,1.6372441934629658e-06,-5.605258356905624e-06,11788,-5.088725,9.900838,11.034682
-0.5250458860604726,-0.5890644738744847,0.7073805427360859,0.0018718148250621,-0.0041948182335988,-0.0107212958196106,-2.4141366974547296e-06,1.684740686466196e-06,-5.090154623461953e-06,11789,-4.727598,10.293711,9.489875
-0.5006541912682081,-0.7567989917344852,0.4547890583983224,0.0024740050250514,-0.0046038762574535,-0.0111665999622618,-7.395836018004565e-07,1.627842129952121e-06,-4.248325836527851e-06,11790,-4.140674,10.915411,8.359047
-0.4091800897780174,-0.8616600336783574,0.32396112817924,0.0030567565133932,-0.0048137325347278,-0.0114646566329318,1.0520122800402744e-06,1.6079311056068216e-06,-3.4217661672604743e-06,11791,-3.47252,11.716329,7.432871
-0.2371511892101085,-0.8208186506076465,0.3393611555610263,0.0035799942080631,-0.0048460422489372,-0.0116049772475674,2.874517419404244e-06,1.6702285828611266e-06,-2.75654133556964e-06,11792,-2.912871,12.50921,6.372426
0.0004427122522454,-0.6800878482914183,0.3567716198139128,0.0039868949835691,-0.0047648383955764,-0.011575209298633,4.670006065242373e-06,1.7603499050443286e-06,-2.169582360391753e-06,11793,-2.437382,13.223039,5.228164
0.2045155868785915,-0.5666001352881083,0.3204317470976447,0.0042509425619045,-0.0046000703190671,-0.0113675206005903,6.405049785445012e-06,1.8577616773357309e-06,-1.6306235783339555e-06,11794,-1.930533,13.915708,4.177473
0.2877539440860536,-0.5181422921237969,0.2864748494338586,0.0043776795739703,-0.0043286495989182,-0.0109780199019591,8.016782992098757e-06,2.015710238226461e-06,-1.2771610700856097e-06,11795,-1.411007,14.652657,3.357358
0.2710593250530633,-0.4817876527754158,0.2614581285069651,0.0043810611040294,-0.0039724839840964,-0.0104057449508651,9.428925553940022e-06,2.248301940935192e-06,-1.170010630070172e-06,11796,-1.016525,15.386106,2.762752
0.2369195145368004,-0.4415854326466164,0.2307305832772786,0.0042997263520539,-0.0035786178565625,-0.0096548988623162,1.0639246244672205e-05,2.482557048966667e-06,-1.1485450257838933e-06,11797,-0.739421,16.07541,2.301677
0.2182160320634367,-0.379401473071046,0.2077948852843218,0.0041563959122424,-0.003169297069911,-0.0087308752310902,1.1715514885359724e-05,2.679260793447909e-06,-1.0966421511248238e-06,11798,-0.468918,16.734884,1.992161
0.1942694169828853,-0.2344767024488633,0.1886318975243157,0.0039574597468131,-0.0027531534951006,-0.0076415099728746,1.2669066041393134e-05,2.883039743444699e-06,-1.112295354082375e-06,11799,-0.236182,17.28498,1.722964
0.1640910671891884,-0.0418363209864486,0.1737328735680827,0.0037287858641125,-0.0023364533738682,-0.0064025293591858,1.3435032380770036e-05,3.0867586867643406e-06,-1.2143936460755623e-06,11800,-0.041166,17.728841,1.517885
0.1390224895697557,0.0991163301615929,0.1537964462365766,0.0035085973068382,-0.0019135494758223,-0.0050388825258506,1.3989373387336256e-05,3.1893352172698616e-06,-1.1895382804530734e-06,11801,0.096328,18.10117,1.361649
0.1344569347874821,0.1621224931476867,0.1183662189525785,0.0033029287416185,-0.0014739966921735,-0.0035650626022542,1.4356687923950973e-05,3.134193818467728e-06,-8.941784124997991e-07,11802,0.219518,18.429272,1.3057
0.1048477160882662,0.2749077623577207,0.0830078809418891,0.0030854636524306,-0.0009998228804758,-0.0019854789449017,1.4556695214211378e-05,2.9603212768849287e-06,-3.981027453362629e-07,11803,0.378878,18.668459,1.364345
-0.0212935994921976,0.6261179750063741,0.0517776070806254,0.0028108747250144,-0.0004516739368828,-0.0003057763985405,1.4613161704046748e-05,2.6843267124591403e-06,2.784093598409827e-07,11804,0.643327,18.72824,1.383805
-0.2135520679629521,1.1438474608054254,0.0413089435642906,0.0023974734873777,0.0002356354302039,0.0014723308036536,1.4527980447736824e-05,2.2608979081808084e-06,1.2397190126838854e-06,11805,1.092281,18.584467,1.335127
-0.4762353334855502,1.5301912471577173,0.0057552918028554,0.001822891860148,0.0010652047429466,0.0033212379085127,1.4228185713614022e-05,1.6973374636086765e-06,2.428532027004316e-06,11806,1.590357,18.330234,1.309499
-0.7909801467190893,1.6697143886142412,-0.2175992428699326,0.0011296731763284,0.0019723928888744,0.0051819012344836,1.3571468618968358e-05,1.073109797828155e-06,3.585763132199642e-06,11807,2.094166,18.111287,1.795444
-0.8720712645338953,1.6468424084307671,-0.6099662902235912,0.0003684721462012,0.0028650868436459,0.0069769996992878,1.2442354306056713e-05,4.347955736176568e-07,4.545495376079821e-06,11808,2.426676,17.823408,2.991908
-0.5734953260890032,1.5293711974826416,-0.89115118501478,-0.000370134745214,0.0035894109642663,0.0085955150260227,1.083645383471569e-05,-2.187993763960519e-07,5.3113001358248174e-06,11809,2.434291,17.370716,4.39113
-0.2751434577468277,1.4156487387738026,-0.9382917316368092,-0.0010452659640525,0.0040774014853687,0.009969159186262,8.832037219652529e-06,-8.698076438372021e-07,5.882697538095448e-06,11810,2.233473,16.687493,5.653436
-0.2847481733950349,1.3236738230805023,-0.9192574882702552,-0.0016733300049079,0.0043555359321217,0.0110753948019394,6.587280052257322e-06,-1.463869255075192e-06,6.214899074839364e-06,11811,1.983027,15.817849,6.895128
-0.3959595167120293,1.142971783426396,-0.9689113376664352,-0.0022601622461222,0.0044480182507677,0.0118876610141066,4.328439060385986e-06,-1.953061091971591e-06,6.312913971327538e-06,11812,1.675112,14.813301,8.116012
-0.3913130178747782,0.8523533682381663,-1.0466933507770388,-0.0028275887947583,0.0044223361084904,0.0123976623127281,2.184744066008538e-06,-2.322594488346196e-06,6.205050823793296e-06,11813,1.31211,13.700476,9.13271
-0.349423892409878,0.3496694412018699,-1.0756619896127264,-0.0033677598962947,0.0043070650101584,0.0126057687296559,1.3177919102222345e-07,-2.550285518220457e-06,5.819884046978049e-06,11814,0.908384,12.60878,10.051448
-0.319570551884765,-0.4210295399363667,-1.0334677515156154,-0.0038332823909959,0.0040829834216774,0.0125214894200977,-1.8220893893346109e-06,-2.5850592232399865e-06,5.036262709598777e-06,11815,0.441978,11.667022,11.050268
-0.1925847650965217,-1.040712457829395,-0.9344097862901596,-0.004176890937924,0.0037608185491061,0.0121921319120219,-3.577188293004525e-06,-2.4073839099877044e-06,3.858393695711305e-06,11816,-0.24317,10.830986,12.073971
-0.0019385058660379,-1.1474290018317774,-0.7810840905494001,-0.0043338747656763,0.0033608366908093,0.0117093192607741,-5.118635587109669e-06,-2.0849326698709103e-06,2.453102583245932e-06,11817,-1.189989,10.026751,13.002862
0.1083131042951379,-0.999707602891106,-0.6106612193054524,-0.0042765127668048,0.0028934873348212,0.0111094090669717,-6.55151909371027e-06,-1.7444686322501004e-06,1.0615550039451755e-06,11818,-2.158803,9.163836,13.724837
0.2464255675545185,-0.9276258842654124,-0.5115844022626559,-0.0040222934580225,0.0023678205280637,0.0103747537662368,-7.918313919302023e-06,-1.4795677362417826e-06,-1.1780768291690553e-07,11819,-2.972879,8.239552,14.242316
0.5362579998140707,-0.8895311346826664,-0.477924661463214,-0.0035970873328604,0.0017868846052394,0.0094887712856658,-9.154901903531495e-06,-1.3138595926284986e-06,-9.966149693270372e-07,11820,-3.498446,7.30294,14.563742
0.7656852368963789,-0.8017061011164963,-0.4464472002878525,-0.0030565398859865,0.0011446778589773,0.0084083362608184,-1.0267989153041144e-05,-1.270732838862016e-06,-1.537780802094236e-06,11821,-3.760909,6.483518,14.905609
0.7727347806099154,-0.6910290041199778,-0.4151311614300952,-0.0024422733979125,0.0004545976443664,0.0071349765758615,-1.1337635194488364e-05,-1.3844386983833758e-06,-1.719928367885503e-06,11822,-3.947704,5.818662,15.334052
0.6983244709264068,-0.5840547760519057,-0.338837133360138,-0.0017813696938593,-0.0002493491755333,0.0057238443871944,-1.2279310875431304e-05,-1.6062650712044994e-06,-1.6169420158398287e-06,11823,-4.148478,5.338038,15.852634
0.6510566817444721,-0.4345823497715835,-0.1397050233225682,-0.0011302297221792,-0.0009259418995932,0.0042318869928669,-1.2896028256028647e-05,-1.8096416117076012e-06,-1.4159519643746146e-06,11824,-4.224065,4.956975,16.136846
0.64904836116105,-0.1457136654826707,0.1310603209394595,-0.0005687877670677,-0.0015164256154872,0.0027426726988676,-1.3170982736259327e-05,-1.9054235966244785e-06,-1.306796655698438e-06,11825,-4.181305,4.682488,16.098711
0.6994805660882529,0.1756783919989616,0.3357992072280089,-0.0001375502640716,-0.0019927747429459,0.0013016282914224,-1.3218260995390682e-05,-1.8975775184809324e-06,-1.3342687284322716e-06,11826,-4.09598,4.552776,15.881359
0.6760990580680052,0.3009205647412788,0.4059355273313055,0.000160836178205,-0.0023616492702058,-9.172640122113216e-05,-1.3054714347663505e-05,-1.84391434723692e-06,-1.3771425233462545e-06,11827,-4.167974,4.627413,15.785938
0.5409942322088814,0.2430001628811442,0.3966009143258762,0.000336279565829,-0.002635071574778,-0.0014342417892256,-1.2637266395022975e-05,-1.7715542097928024e-06,-1.3576452751613197e-06,11828,-4.325798,4.784372,15.764694
0.44059309289084,0.1820636432215716,0.4517393829240986,0.0004315168463252,-0.0028473102170936,-0.002740386617622,-1.2030173624320857e-05,-1.6582633254476767e-06,-1.3595666524531444e-06,11829,-4.465443,4.792551,15.398843
0.3853297443608249,0.2376446061877124,0.666959252439265,0.0004763767889953,-0.0030317383423384,-0.0040119335742632,-1.137665415258322e-05,-1.492243433127944e-06,-1.4724893804658051e-06,11830,-4.282063,4.494613,14.142455
0.3139084761208151,0.445436218959929,0.9539679450029356,0.0004896976358879,-0.0032222718530206,-0.0052338114274663,-1.0725099700035598e-05,-1.2791331555067195e-06,-1.6997977475036523e-06,11831,-4.000381,4.841438,13.319842
0.2501343996256144,0.6187990961500607,1.1227844956516349,0.000523520086356,-0.0034841106760414,-0.0064073661198782,-1.0026336836892288e-05,-1.0102029237557886e-06,-2.0371345710856923e-06,11832,-4.213558,5.671338,13.410165
0.1773248717019594,0.4378741118860528,1.112899005428951,0.0006588860142707,-0.0039152534013616,-0.0075436827315349,-9.2231791374894e-06,-6.580498072960774e-07,-2.51687403788541e-06,11833,-4.41966,6.643629,14.03808
0.1126941042236062,0.0057053332150761,1.041389753745087,0.0009244592035908,-0.0045328873516551,-0.0086368387229479,-8.210565571225206e-06,-2.369921280375949e-07,-3.054362992356691e-06,11834,-4.702654,7.252145,13.867688
0.1402182973535599,-0.2801279974052362,0.9538414036457674,0.0012966455595904,-0.0052671405060068,-0.0096661207434093,-6.84526263543666e-06,1.3812813112694192e-07,-3.328908418845846e-06,11835,-4.729563,7.5011,12.505669
0.1999182796723644,-0.3723397295712486,0.736866179377488,0.001734076254964,-0.0060095545058872,-0.0106032788884333,-5.061097407661928e-06,3.754997109352586e-07,-3.1072301772929317e-06,11836,-4.385014,7.820093,10.811039
0.1817721763709429,-0.4738887537145101,0.4191301461060675,0.00215014305294,-0.0065685279388697,-0.011404130365458,-2.918078615887608e-06,5.359095055098542e-07,-2.548036108763849e-06,11837,-3.721351,8.386026,9.36857
0.1468539964771379,-0.6374410357930995,0.2262360163440359,0.0025018152877745,-0.0068584583056246,-0.0120291867530067,-5.707676737499665e-07,7.240271148189744e-07,-1.950083394979656e-06,11838,-2.954907,9.139563,8.171719
0.175504782496664,-0.7811953952533063,0.2180366657665052,0.0027922824102629,-0.0069085993607312,-0.0124418528533682,1.7956317125017563e-06,9.57614725434479e-07,-1.4385602983624e-06,11839,-2.248872,9.96379,6.871744
0.2313392426640434,-0.8348550307484667,0.238350783735173,0.0030037743903976,-0.0067364887772935,-0.0125885429914429,4.025191913005243e-06,1.2045028155647611e-06,-1.0155062566989658e-06,11840,-1.74441,10.831655,5.452288
0.2724782348678864,-0.7803484397968115,0.217037770666451,0.0031190906942633,-0.006403233429276,-0.0123996522572345,6.017046638711475e-06,1.456331463089438e-06,-7.036749327130095e-07,11841,-1.322933,11.739876,4.12535
0.2738036609532452,-0.6993903413747163,0.1965588328488449,0.0031333073560584,-0.0059481372723947,-0.0118549358027649,7.713233023007463e-06,1.7035475476207831e-06,-5.03887853397955e-07,11842,-0.919072,12.620399,3.119092
0.2272800699033341,-0.6555133898047764,0.1792468964182945,0.0030493290901123,-0.0053802513103808,-0.0109880845899619,9.08760214943444e-06,1.8860087455988609e-06,-2.998656165680743e-07,11843,-0.496664,13.381973,2.443162
0.1893571747537248,-0.5930945381684424,0.1577140931637848,0.0028902968465597,-0.0047587960639096,-0.0098616230261654,1.0176833038964668e-05,1.9550341134832686e-06,2.3777725568534084e-08,11844,-0.19255,14.051545,2.01014
0.1688714549715953,-0.5072623975201183,0.1596183490376131,0.0027057347359692,-0.0041826021941511,-0.0085945946395986,1.1049460612368602e-05,1.9408958977039e-06,4.2622421708030636e-07,11845,-0.008991,14.608342,1.677507
0.0884803420086931,-0.4046241633259487,0.1927674873814221,0.0025144638569137,-0.0036856457216987,-0.0072468499625525,1.1701849108212638e-05,1.900858661598839e-06,7.833173480975952e-07,11846,0.119566,15.061564,1.448306
-0.0454887609242268,-0.2359432831478621,0.2197645401224116,0.0023055044133714,-0.0032410295752215,-0.0058164305756046,1.2108454408689664e-05,1.8760352406374144e-06,1.0028622926637754e-06,11847,0.245677,15.432717,1.24634
-0.1418296769855059,-0.003908739486476,0.211764736413511,0.0020713067533957,-0.0028018001381557,-0.0043206941037346,1.235106617958848e-05,1.894103210538924e-06,1.06720327242243e-06,11848,0.373367,15.718872,1.090216
-0.1799800360679,0.2791763355166371,0.1854709345520057,0.001792730900202,-0.0022682034537726,-0.002766674479441,1.2532585860517822e-05,1.9417097917504157e-06,1.05371745246166e-06,11849,0.472228,15.872551,1.018547
-0.2517800605496375,0.6095746766567254,0.151513401722241,0.0014608116078201,-0.0015967273696689,-0.0011701260227059,1.262743285081116e-05,1.957371009446685e-06,1.085611788392891e-06,11850,0.56508,15.868881,0.975624
-0.4675055538613465,0.9515619666176368,0.1163149808872361,0.0010797553617849,-0.0008042446373067,0.0004364737807208,1.2541083987690518e-05,1.8633118620160511e-06,1.2902823163728948e-06,11851,0.771983,15.687459,0.83795
-0.7831086321923342,1.2370791143506683,0.0717499673788796,0.0006446655143932,0.0001116903704951,0.0020352109490525,1.2240387612227511e-05,1.6291575971979696e-06,1.7181848079507127e-06,11852,1.004,15.341999,0.570229
-1.0060985197502688,1.3869786701800737,-0.0879119513710191,0.0001469284778165,0.0011444970745101,0.0036171269529851,1.1707740437247888e-05,1.301229990728421e-06,2.2518269869136043e-06,11853,1.209118,14.96995,0.535138
-1.040718545633848,1.3787687467325906,-0.3961342583119526,-0.000406380216071,0.0022645865627164,0.0051548820515843,1.0841786111525616e-05,9.21563566103974e-07,2.743008723010212e-06,11854,1.357476,14.610353,1.049134
-0.959671650282366,1.2758698671012785,-0.6572266328244702,-0.0009925433438743,0.0034211843739955,0.0066045223395755,9.57807393336087e-06,4.997401926227423e-07,3.14010161974156e-06,11855,1.340186,14.250985,1.877596
-0.8470643873125351,1.179247907131507,-0.7616871982913005,-0.001576162955668,0.0045207253380101,0.0079127390103587,8.012294187165379e-06,5.7761881855978995e-08,3.4421742355679064e-06,11856,1.160783,13.749272,2.646629
-0.7657595231685732,1.106811346525703,-0.8533658177739216,-0.0021006297063218,0.0054134673410766,0.0090077057478641,6.258758665558158e-06,-3.907352440143682e-07,3.674835436337641e-06,11857,0.85175,13.131316,3.576809
-0.7583917017426245,0.9670668699020808,-0.9839340404652448,-0.0025377544636126,0.006030377252399,0.0098480289388012,4.3413288138604775e-06,-8.433069500375213e-07,3.847682446484478e-06,11858,0.504414,12.454359,4.830326
-0.766259743260786,0.6999389940239902,-1.0438689981540312,-0.0028892980087316,0.0063851405624763,0.0104256797095353,2.317522101830714e-06,-1.2567062835238043e-06,3.893497148555763e-06,11859,0.238785,11.699667,6.178799
-0.7212420728911434,0.2889034206336671,-1.0506204536928383,-0.0031564887723222,0.0064985288259296,0.0107370631742015,3.492068195583868e-07,-1.5498017695158157e-06,3.70130495462115e-06,11860,-0.047591,10.878863,7.279083
-0.6389898050834282,-0.2754079833606876,-1.0790927138517403,-0.0033547631223164,0.006440081484163,0.0107993789736521,-1.4407987251040385e-06,-1.6738894576044475e-06,3.2087245719424383e-06,11861,-0.481115,10.160497,8.364284
-0.5209897915741258,-0.8283325131686934,-1.0668637077230665,-0.0034840088462259,0.0062420428375374,0.010626354263429,-3.027265266876853e-06,-1.6203510259663071e-06,2.3999487315255182e-06,11862,-1.058682,9.588341,9.449656
-0.3551354889844414,-1.0893638500583245,-0.9632476544541956,-0.0035252621227314,0.0058943930051015,0.010228906330869,-4.36919642034752e-06,-1.394105009048315e-06,1.3020659900176391e-06,11863,-1.742196,9.056814,10.305798
-0.1950656556199968,-1.0483516026141535,-0.8439334215809753,-0.003466614864926,0.0054233313372301,0.009644815963979,-5.461773166223008e-06,-1.0906858560578756e-06,1.3483267457123246e-07,11864,-2.447692,8.529182,10.998828
-0.071215469183114,-0.9437766869323776,-0.765474775689564,-0.0032948937054144,0.0048731135526476,0.0089385161460531,-6.457065906392322e-06,-8.868941048641406e-07,-7.636501427840174e-07,11865,-3.077574,7.972313,11.5468
0.0793945476993042,-0.8940852696176744,-0.7108601969762808,-0.0030150061539505,0.0042663810870828,0.0081401225159544,-7.506813388839973e-06,-8.538975803845249e-07,-1.2912890508348085e-06,11866,-3.56742,7.399794,12.001442
0.2786661015351629,-0.8616848819259082,-0.6628041056627931,-0.0026561457485204,0.0036119707006259,0.0072472219658153,-8.555600312946443e-06,-9.063780543709344e-07,-1.6149841836715964e-06,11867,-3.857471,6.88946,12.478326
0.4171402626280188,-0.7540179601744434,-0.5784822104722278,-0.0022602124395687,0.0029123424326729,0.0062554719822666,-9.458362090816896e-06,-9.854626537173036e-07,-1.8100462535161463e-06,11868,-3.981881,6.454507,12.946616
0.414009565513336,-0.4660042591553748,-0.4191302721946464,-0.0018932422804106,0.0021543265956833,0.0051415346864112,-1.0198606729933169e-05,-1.134284470173726e-06,-1.7758495718496028e-06,11869,-4.019988,6.113143,13.385025
0.3884877343620558,-0.048272080955712,-0.2427202171946102,-0.001592260119816,0.0013523893912891,0.0039094206081639,-1.0816271976564376e-05,-1.3237585367063629e-06,-1.5978259218244274e-06,11870,-4.041128,5.81912,13.735703
0.4537285935780102,0.2976471352775315,-0.0786708622261636,-0.0013631533620047,0.000551343186319,0.002595016388618,-1.1265331206782405e-05,-1.4370263028398004e-06,-1.526956041426672e-06,11871,-4.024803,5.541625,13.923776
0.5276537765487697,0.4553792259586707,0.1656110961753226,-0.0012164747346685,-0.0001988853323136,0.0012320606137579,-1.1490859744121534e-05,-1.4863205582449334e-06,-1.5175562356241342e-06,11872,-3.938673,5.327702,13.966379
0.566745555481947,0.459892923235953,0.4847991620113284,-0.0011523567077632,-0.0008285212397371,-0.0001330998505562,-1.1496572015528692e-05,-1.5752040453629406e-06,-1.3309843589653809e-06,11873,-3.858177,5.304794,14.086675
0.522059068877858,0.3967041981399353,0.6793510609405913,-0.0011587582527332,-0.0013215659038466,-0.0014704236788362,-1.1285410850188676e-05,-1.6603179296902276e-06,-1.0555617142948614e-06,11874,-3.919838,5.394619,14.226596
0.2103439913242126,0.3474806743485434,0.6762802945275658,-0.0012104909548183,-0.0017252212392978,-0.0027705017776989,-1.0849079560499757e-05,-1.580210607674909e-06,-1.053384112128801e-06,11875,-4.092507,5.226605,13.659406
-0.2540373789155609,0.3299024179145985,0.7154938293944416,-0.0012529780008847,-0.002109765684257,-0.0040194679804325,-1.0210477597423548e-05,-1.2682082902984296e-06,-1.4943305624921286e-06,11876,-3.699329,5.194212,12.540963
-0.4955623460381244,0.2528169516947862,0.9710911836833888,-0.0011942769574173,-0.0025994333262653,-0.0052082024707068,-9.429310800023824e-06,-7.942967143897352e-07,-2.2515286139502446e-06,11877,-3.855607,5.874587,12.212093
-0.4605717991319986,0.0581755237183129,1.244180104897644,-0.0009948873262855,-0.0032217588211352,-0.0063204705858071,-8.567952572172703e-06,-2.599340578400595e-07,-3.125472288749125e-06,11878,-4.370048,7.010087,12.961935
-0.2738311146801412,-0.1793289558995134,1.292746056829897,-0.0006687122103486,-0.0038950658700022,-0.0073297700886285,-7.591068703804989e-06,2.657688283467601e-07,-3.9440493905077984e-06,11879,-4.987758,7.928242,13.362139
0.064212592432458,-0.4069969586049153,1.1681641305317023,-0.0002334188055059,-0.0045194802162401,-0.0082118520856649,-6.340784344498793e-06,7.215592349042555e-07,-4.48836382404257e-06,11880,-5.256125,8.201333,12.188912
0.3813935732302228,-0.6663864806434947,0.983516701671368,0.0002625687268332,-0.0049237601522613,-0.008940398847566,-4.739517318784472e-06,1.0220971908658573e-06,-4.515396261836861e-06,11881,-5.135631,8.414536,10.340915
0.4450578510778606,-0.9401163353860836,0.7161587740450767,0.0007867403803788,-0.0050366205225924,-0.0094960212450761,-2.9162343303930554e-06,1.1261196599843742e-06,-3.985037184574684e-06,11882,-4.66112,8.6124,8.408252
0.3795051519664775,-1.1187020502787166,0.4467901117804447,0.0013242643005071,-0.0049015146278245,-0.0098686234917189,-1.077605121508651e-06,1.0984156031092157e-06,-3.1450175142406973e-06,11883,-4.036006,9.061356,7.109615
0.3583113634427238,-1.1394865689581253,0.3535595674110651,0.0018299117002077,-0.004558645297334,-0.0100506391870251,6.303050014140928e-07,1.0495937548739602e-06,-2.3132544598693853e-06,11884,-3.494846,9.774064,6.315162
0.3423626104840482,-1.031524374133768,0.4047301996082035,0.0022348996962788,-0.0040998070619944,-0.0100413143420605,2.155848255061879e-06,1.0613911905612514e-06,-1.6867135277075109e-06,11885,-3.135647,10.504305,5.5229
0.3188873492721181,-0.8875222808418243,0.4314603601497199,0.0025114248170643,-0.0035758097134531,-0.009844711227426,3.5048954557212767e-06,1.1502462914928892e-06,-1.2966710608506028e-06,11886,-2.845516,11.135108,4.639314
0.2943994574847399,-0.7896946037165349,0.3958738247996493,0.0026708661127213,-0.0029867351173351,-0.0094713736925075,4.721747473130733e-06,1.2786207575414651e-06,-1.0484124439370576e-06,11887,-2.493822,11.775343,3.918943
0.2308408881275692,-0.7347577820110877,0.358750964223662,0.0027388990598357,-0.0023743684101641,-0.0089460214854085,5.879980092316337e-06,1.4104405515261598e-06,-8.305753695983494e-07,11888,-2.068518,12.440833,3.443956
0.1429261455021668,-0.6831270374320109,0.3307996547655254,0.0027765159643074,-0.0018012063662459,-0.0083111163895671,6.999441445764309e-06,1.5193665762914135e-06,-5.711620616998974e-07,11889,-1.677016,13.106168,3.127398
0.075305442851878,-0.6123807308495997,0.3013077782362835,0.0028057839686454,-0.001297499048668,-0.0075859356104299,8.049321952444338e-06,1.5775601038560934e-06,-2.277193013298551e-07,11890,-1.354608,13.742958,2.842727
0.0367201373912296,-0.5430255945127882,0.2878596995518422,0.0028070457764775,-0.0008690895822611,-0.0067663958134324,9.044389382779592e-06,1.6031225837658597e-06,1.549989013655206e-07,11891,-1.116424,14.364199,2.597515
0.0112261722656628,-0.4530472800594787,0.2933781613809432,0.002772074267754,-0.0005071812916906,-0.0058481736539017,1.0024121022098084e-05,1.6819038448880566e-06,4.045059510385862e-07,11892,-0.891823,14.946311,2.363322
-0.0026475664667957,-0.2508719773208301,0.2970378607281859,0.0026843625290881,-0.0001733696353934,-0.0048148642318744,1.095817499910746e-05,1.8582928182082696e-06,4.177214814833523e-07,11893,-0.668317,15.461485,2.105069
-0.0039684850574043,0.0071108881451822,0.2858845816597734,0.0025369702744665,0.0001535269628997,-0.0036664403650161,1.1721256382598543e-05,2.026280258755076e-06,3.773568546018161e-07,11894,-0.455109,15.900754,1.923219
-0.0058155214252544,0.2311951560648109,0.2619118144652961,0.0023383086157971,0.0004796052549969,-0.0024223496508358,1.2200120927104646e-05,2.0260682390725302e-06,5.886722631394327e-07,11895,-0.301572,16.192061,1.89171
-0.0385765493022519,0.5051033168702945,0.2193439746127931,0.0020891377171937,0.0008340444090596,-0.0010992928903154,1.2415569495440064e-05,1.823059851058964e-06,1.1451018923511531e-06,11896,-0.162779,16.28444,1.929173
-0.1478596215469163,0.8246561453099708,0.1879591509474052,0.001788488356404,0.0012623240215032,0.0002799001564527,1.2429353161370164e-05,1.4927334716738805e-06,1.912245666967788e-06,11897,0.042924,16.183001,1.895194
-0.3190464835699655,1.0686899324954489,0.1824785345294388,0.0014385928071062,0.0017807705292519,0.0016949860555422,1.217784877479479e-05,1.0762283812639095e-06,2.7662340321304398e-06,11898,0.368479,15.942352,1.80542
-0.4471896155899781,1.2530259992138832,0.0288476621616219,0.0010425638147527,0.002378055603208,0.0031299475456278,1.154509925143735e-05,5.989303427709938e-07,3.5904198271384823e-06,11899,0.743303,15.726446,1.911261
-0.4357106888975232,1.3854742130177138,-0.3916935683447459,0.0006068835552211,0.0030316517886473,0.0045608495256832,1.0536269421415969e-05,1.6364149260538073e-07,4.15226735117053e-06,11900,1.024332,15.516164,2.63719
-0.3463725452191637,1.3633289794195012,-0.8095817487715025,0.0001425053126775,0.003692830197082,0.0059572063599462,9.20783528677434e-06,-1.8191606238002299e-07,4.369985014456214e-06,11901,1.08238,15.21577,3.730508
-0.3881065490944876,1.2414252072446512,-0.9520731224544348,-0.0003403375911123,0.004322108480727,0.0072777019751415,7.52003771622569e-06,-5.67707067375831e-07,4.521050955398903e-06,11902,0.939538,14.779094,4.881872
-0.6106378076945904,1.1494916910764177,-0.9476543543400028,-0.0008310025923683,0.0048871129203617,0.0084652853861605,5.493957381439471e-06,-1.0910307626725245e-06,4.836942561606872e-06,11903,0.760341,14.148,5.9483
-0.7932458923747644,1.0381867306855104,-0.9762742808766228,-0.0013140880199192,0.005328403140177,0.0094455335088182,3.3698685380225545e-06,-1.6273305109975037e-06,5.145131266999812e-06,11904,0.636489,13.370529,7.149964
-0.7912551259537104,0.8268633932287687,-0.9951563211309408,-0.0017692383088486,0.0055621090857413,0.0101190140933576,1.3958950823390345e-06,-2.0059556700522046e-06,5.168760135111448e-06,11905,0.482282,12.553998,8.440346
-0.6837682693817132,0.4300497488983342,-0.9776375965004886,-0.0021779829642855,0.0055473747583025,0.0104512603269019,-3.569956288396528e-07,-2.1952311700857133e-06,4.857145830014479e-06,11906,0.307671,11.830882,9.757362
-0.5077465852423504,-0.1979628793066419,-0.9642617146257964,-0.002522643037466,0.005286369928063,0.0104806042205586,-1.8861989748217928e-06,-2.1955851781097856e-06,4.200011554879201e-06,11907,-0.000306,11.261388,11.012432
-0.2466656800419835,-0.7785663947548012,-0.9418289511948124,-0.0027814680957088,0.0047948417749444,0.010275512743231,-3.157381698047737e-06,-1.9612964864045933e-06,3.1102084757802154e-06,11908,-0.555539,10.7354,11.93818
-0.0266466165764614,-0.975845491202974,-0.900743210923508,-0.0029291256327678,0.0041246560459576,0.0099711234177199,-4.187958273530913e-06,-1.5380726918930254e-06,1.694664212592765e-06,11909,-1.296735,10.194621,12.514315
0.0738941554943089,-0.8759824629457189,-0.8527637974541142,-0.0029543343762442,0.0033174163008602,0.0096197198557312,-5.106893030157059e-06,-1.0959602221939198e-06,2.9052343817504805e-07,11910,-2.037702,9.581041,12.804898
0.1569370148709456,-0.7835922950865107,-0.7928804102340627,-0.0028614973080104,0.0024071345836466,0.0091835764208839,-6.026514289046836e-06,-7.651174764974962e-07,-8.5094242311869e-07,11911,-2.647464,8.902813,13.064941
0.2582311977386931,-0.7562391517843093,-0.7355790266022387,-0.0026644601680029,0.0014682404503963,0.0086368189192732,-6.968673777456115e-06,-5.80310552057278e-07,-1.6578504647972114e-06,11912,-3.152139,8.191878,13.410416
0.3382841711487288,-0.6664799825373532,-0.6948225765991625,-0.0023945670674447,0.0006132535396287,0.0079222424228774,-7.941667740452017e-06,-5.653276904679412e-07,-2.0857546395881893e-06,11913,-3.483173,7.497766,13.832727
0.4404896303798112,-0.4888780076092368,-0.6001649147956409,-0.0020714698840273,-0.0001009220649188,0.007024750448434,-8.909775399087253e-06,-7.13832461923629e-07,-2.141997172065143e-06,11914,-3.690883,6.845776,14.209882
0.5519461845288554,-0.2526252365942026,-0.3705022355103474,-0.0017038220979806,-0.0006712287692852,0.0059839261499386,-9.740640249131964e-06,-9.120633546815892e-07,-2.02596393866177e-06,11915,-3.811312,6.218707,14.486087
0.5695639293271821,0.003632194141656,-0.0969490364484631,-0.0013124366169728,-0.0011042472785453,0.0048272247885685,-1.0315521504339924e-05,-1.020472060840219e-06,-1.999687381239888e-06,11916,-3.859545,5.646712,14.56695
0.5837842480505478,0.1952332370443166,0.0509853193699344,-0.0009251686616935,-0.0014444869533579,0.003593821555599,-1.0622814548092483e-05,-1.0143152327328395e-06,-2.12141413911288e-06,11917,-3.890808,5.201245,14.52133
0.7426288025016035,0.2793521282327226,0.103262477590002,-0.0005626052595679,-0.0017049929291775,0.0023119698015725,-1.0708551997205968e-05,-9.46073466488302e-07,-2.2971647292199737e-06,11918,-3.922591,4.933785,14.471793
0.8914490068647637,0.2850604535204866,0.1849137768105943,-0.000240458546074,-0.0018646647936937,0.0009919091591147,-1.060004722415093e-05,-8.502231479618722e-07,-2.455128850778207e-06,11919,-3.965046,4.867543,14.447233
0.8943134414931511,0.2667215550436075,0.2863951987220578,2.6187137260966263e-05,-0.0019267346130279,-0.0003439416398617,-1.0334168889935114e-05,-7.742335881359268e-07,-2.5031214128325427e-06,11920,-4.018364,4.92036,14.381383
0.8415508005647647,0.2382171907638279,0.4000202528637959,0.0002260311317422,-0.0019035938157302,-0.0016678820369371,-1.0004359869156558e-05,-7.767383508938761e-07,-2.356068990083632e-06,11921,-4.097967,5.015161,14.324598
0.6716276414832019,0.1974940616506272,0.5649085041642641,0.0003618218142797,-0.0018322097455534,-0.0029587316608537,-9.673019474939894e-06,-8.132355316754803e-07,-2.1411498773917757e-06,11922,-4.199299,4.806022,13.495802
0.3285021979663147,0.2042604054089106,0.7265233357682238,0.000453697992521,-0.0017872695028838,-0.0041986920331269,-9.275025213379489e-06,-7.155644385240431e-07,-2.204907986870606e-06,11923,-3.752634,4.893726,12.462365
0.07265848680865,0.2564137561470695,0.8363048678666418,0.0005407562968727,-0.0018721160759686,-0.0053729333680453,-8.697082622891806e-06,-3.688962427745927e-07,-2.761285562503696e-06,11924,-3.824497,5.625143,12.39457
0.0503843214685095,0.2179831601577348,0.9406903253304504,0.0006900775018137,-0.0022360361826015,-0.0064721816767946,-7.934597232899453e-06,1.343123132564443e-07,-3.604851537642795e-06,11925,-4.179567,6.637109,13.236573
0.0761824045043886,0.0194877046004094,0.9955053168101676,0.0009243934675169,-0.0029065030295166,-0.0074815395561611,-7.052110267223339e-06,6.028158025585034e-07,-4.32526447978028e-06,11926,-4.649103,7.435741,13.725654
0.0515452708286552,-0.2534638131409543,0.8753015624762086,0.0012191584199791,-0.0037728786224917,-0.0083805992508555,-6.006190792824408e-06,9.28625192558662e-07,-4.6487245870966376e-06,11927,-4.926084,7.784826,12.876593
0.0364613390479997,-0.4736512360703924,0.6528006917316045,0.0015433823468016,-0.0046681097186623,-0.0091508352792177,-4.704850188282631e-06,1.0727678049888117e-06,-4.443694939186952e-06,11928,-4.705781,8.136414,11.455848
0.027947770659493,-0.584017746200673,0.4838214287484493,0.0018360665915346,-0.0052997418572143,-0.0097729461873781,-3.1966164059431133e-06,1.0126980351421669e-06,-3.6835383120384286e-06,11929,-4.203062,8.551094,9.932235
0.0394877228165472,-0.6653632735101347,0.367367636839332,0.0020698896175003,-0.0055488716323237,-0.0102309159730264,-1.614362239279235e-06,8.093949523014407e-07,-2.568427568760512e-06,11930,-3.618709,9.093737,8.640905
0.1008615416560604,-0.7803897423892079,0.2939829021457811,0.0022558990777155,-0.0054873857330532,-0.0105132917094782,6.142691552578118e-09,6.182035856560631e-07,-1.4630555286691006e-06,11931,-2.999125,9.736,7.471856
0.1530628324239297,-0.8063086105368262,0.3015745531708269,0.0023937709889657,-0.0051816072784811,-0.0106099431516858,1.7014148256259406e-06,5.558890183475836e-07,-6.050221199181995e-07,11932,-2.53404,10.422332,6.22582
0.1592755414225302,-0.6858163601836449,0.3409618571457842,0.0024894278896407,-0.0047843224776685,-0.0105141211600421,3.399194106897761e-06,6.017023977230987e-07,2.7129136910645838e-08,11933,-2.203991,11.151623,5.06342
0.1516326722021919,-0.5759896069713832,0.3263797522097552,0.0025450946345029,-0.004365052635351,-0.0102231253121166,4.959795573595849e-06,6.797160948476023e-07,5.395775410618597e-07,11934,-1.850435,11.881177,4.076682
0.1430409185143976,-0.548023821641731,0.2819604998399657,0.0025545703965264,-0.0038908648967755,-0.0097394680722356,6.371002423459424e-06,7.846220528098716e-07,9.316640579195804e-07,11935,-1.457579,12.607515,3.36406
0.122663119027945,-0.5213871616222643,0.2807546991461198,0.0025219058683529,-0.0033837779919838,-0.0090742442724188,7.671701141165809e-06,9.315942720783188e-07,1.1785562661692863e-06,11936,-1.078045,13.327765,2.884894
0.0995400172809989,-0.4675051154683851,0.3124212036394098,0.0024588251754346,-0.0028765860390426,-0.0082498977198542,8.798082613197427e-06,1.074061803836744e-06,1.34966382096493e-06,11937,-0.798848,14.011171,2.537456
0.080110234485254,-0.4136537814982667,0.3378757293057489,0.002367584543411,-0.0023844314810019,-0.0072781228234105,9.685256368075782e-06,1.1613124801973563e-06,1.5313112960805714e-06,11938,-0.603965,14.616989,2.180197
0.0524105052924246,-0.3432345380286887,0.3430470976174137,0.0022428011762136,-0.0019205161997906,-0.006160414884104,1.0384842568454166e-05,1.1883917903965224e-06,1.7689907787360089e-06,11939,-0.438065,15.157974,1.826936
0.0223544071122455,-0.1635912065215279,0.3256695208863405,0.0020778579684676,-0.0014770416699174,-0.0049021926209549,1.09755102200144e-05,1.190541591189147e-06,2.0273991175778238e-06,11940,-0.241605,15.652882,1.559626
-0.0187198682277169,0.1237478179887646,0.30036151476439,0.0018605922941437,-0.001019393774661,-0.0035076675362409,1.1438872148349482e-05,1.2122578421027216e-06,2.194099701493873e-06,11941,-0.082946,16.075818,1.462534
-0.0867784416729633,0.3443272554414598,0.2666980524479317,0.0015863621295536,-0.0005316671838966,-0.0019972935050957,1.1717900573965546e-05,1.2468206998700344e-06,2.2501993642050657e-06,11942,0.001361,16.3335,1.509649
-0.1408784443130207,0.4508779862848897,0.2259831192178081,0.0012589934213274,-1.2176845126530634e-05,-0.000412223942136,1.181367122025084e-05,1.2420448130094016e-06,2.3118370181741367e-06,11943,0.063791,16.363597,1.635372
-0.223500776426394,0.5992505435735778,0.2130295204829771,0.0008816005378238,0.0005555560813555,0.0011941532683601,1.1717569730004673e-05,1.1540117782057217e-06,2.474519608018101e-06,11944,0.149889,16.189599,1.673346
-0.4802086695233379,0.8572670662389184,0.14099491819677,0.0004605602198978,0.0011955536125027,0.0027462768367114,1.1378304243197674e-05,9.745388132080387e-07,2.732696033978077e-06,11945,0.267951,15.855769,1.512124
-0.8584013243220954,1.1205282141220942,-0.1758119601633817,1.22494670352284e-06,0.0019146771425876,0.0041996634937173,1.077396780011466e-05,7.202126452933641e-07,3.041010555864788e-06,11946,0.34607,15.45532,1.442177
-1.0594486610709088,1.2510617943040254,-0.6216652644108875,-0.0004925793304186,0.0027036796951483,0.0055435158852373,9.886281651513349e-06,3.990077427903823e-07,3.3766758120113004e-06,11947,0.319405,15.038977,1.936085
-0.8725742290231439,1.2169740474666186,-0.8469440444556718,-0.0010127719724147,0.0035433966052494,0.0067672921438561,8.687641097891821e-06,4.798816178140844e-08,3.6462038119507215e-06,11948,0.18493,14.623691,2.795254
-0.5107833099167023,1.1150362465174384,-0.8175384549228607,-0.0015474595809176,0.0043957513087519,0.0078772054215657,7.229025453713647e-06,-2.453389506818682e-07,3.674532833027493e-06,11949,-0.043369,14.154014,3.679258
-0.4198582539349795,0.9938428353307284,-0.7761782140339386,-0.002078415146921,0.0052255988844145,0.0088637613409539,5.625753733949456e-06,-4.652734292130817e-07,3.473682671522149e-06,11950,-0.310332,13.58151,4.500563
-0.647924167632242,0.8435413563377712,-0.7920688976491385,-0.0025783633489239,0.0059978295873398,0.0096986572520525,3.955665093890947e-06,-7.025905251501833e-07,3.28209097098776e-06,11951,-0.636378,12.934395,5.421704
-0.8349389555142956,0.653313126305587,-0.7860711415278916,-0.0030097364271607,0.0066548662907054,0.0103642054962202,2.2555732789435946e-06,-9.782183844493605e-07,3.163062867554918e-06,11952,-0.965269,12.21095,6.369212
-0.789846849923894,0.253694851378669,-0.7686648674597447,-0.0033202450565912,0.0071161800451139,0.0108451772431565,6.023058871038897e-07,-1.161461936039877e-06,2.851295736705922e-06,11953,-1.294762,11.531439,7.438363
-0.6021079379992456,-0.3935900346784377,-0.7889433280339847,-0.0034830593983648,0.0073415933335245,0.0111331561590875,-9.083998207071466e-07,-1.146983868690712e-06,2.149518484688051e-06,11954,-1.657571,10.984823,8.624497
-0.3466245516510507,-0.8891195476496327,-0.8331834492548836,-0.0034987921817046,0.0073323114535979,0.0112316144607242,-2.267730880751093e-06,-9.881428472075214e-07,1.1839780353320543e-06,11955,-2.100899,10.55089,9.813872
-0.0891482821844255,-0.966634936787265,-0.8368382523414823,-0.0033736103029974,0.0071011523559599,0.0111503573898223,-3.527432894711792e-06,-7.772036912363524e-07,1.4336792013030386e-07,11956,-2.670768,10.131391,10.836368
0.0469865621045336,-0.8517255995239311,-0.7785123230974507,-0.0031329706777308,0.0066939062048533,0.0109106271463659,-4.715877511407015e-06,-5.578787862226633e-07,-8.806068901963934e-07,11957,-3.294599,9.619334,11.627006
0.0707084822818257,-0.7928350141680145,-0.7152255731489275,-0.0027979326158808,0.0061477523536543,0.0105215370778362,-5.85395832169704e-06,-4.0666513033918957e-07,-1.7170222427244188e-06,11958,-3.897202,9.041147,12.293769
0.1151996532791516,-0.7639424795000503,-0.6648709946378457,-0.0023860983976906,0.0054935176487459,0.0099793055209356,-6.974637372940327e-06,-4.08876155849583e-07,-2.1797883716370163e-06,11959,-4.289575,8.405243,12.910159
0.2490889302509737,-0.6519533394484855,-0.6166155754308007,-0.0019383827676149,0.0047999735055108,0.0092838634761929,-8.084381274605195e-06,-5.4473334693157e-07,-2.3168241530648826e-06,11960,-4.481096,7.762796,13.532563
0.4056201996056153,-0.4514612075737392,-0.5657920142327038,-0.0015182528703136,0.0041720870907058,0.008432616931381,-9.130489338593362e-06,-7.362959800538395e-07,-2.2925761926642546e-06,11961,-4.579019,7.18953,14.137862
0.4729792962559286,-0.232959931018724,-0.4513168256093848,-0.0011623311566416,0.0036595121514685,0.0074305112278827,-1.0020198003487098e-05,-9.645417095235784e-07,-2.119212306894649e-06,11962,-4.594207,6.740617,14.682927
0.4659162754107884,-0.0062719659907605,-0.2664237495651149,-0.0008825202241824,0.0032576383006326,0.0062927259808887,-1.068509590798247e-05,-1.2399313827286172e-06,-1.7489283383646045e-06,11963,-4.530131,6.439706,15.207877
0.4610214672841795,0.2264225084414998,-0.0714440466601548,-0.000691009993017,0.0029504867475268,0.0050363351455939,-1.1110640070673964e-05,-1.5037734561097735e-06,-1.3154684214238968e-06,11964,-4.447155,6.155438,15.512609
0.4581254185719433,0.3597194904279163,0.151895144906915,-0.0005871989418742,0.0026823082578724,0.0036848663087511,-1.1289401437210398e-05,-1.686956166491532e-06,-9.75049669287462e-07,11965,-4.274649,5.874946,15.476021
0.4405243470775276,0.3505715542532673,0.3636906988638372,-0.0005645700120743,0.0024280952714614,0.0022680556309506,-1.1197174861166194e-05,-1.8056081499803669e-06,-6.731037959048481e-07,11966,-4.081655,5.678082,15.305159
0.4182198691170327,0.2998832562324875,0.4385241646220204,-0.0006092138902309,0.002195617242715,0.0008235143533117,-1.0818816654959637e-05,-1.8230268960817068e-06,-4.742565303320275e-07,11967,-4.027186,5.684899,15.29185
0.3848778446061782,0.2704852920098056,0.4835787543202834,-0.0006819514112366,0.0019654295785124,-0.0005960172049379,-1.0193762883518642e-05,-1.594707950637385e-06,-7.230991226825916e-07,11968,-4.159256,5.685739,14.914741
0.3248519394168535,0.2520004314919715,0.7003696266751688,-0.0007135376121356,0.0017053886580561,-0.0019183796870964,-9.469590039465382e-06,-1.129152080966047e-06,-1.480152200921828e-06,11969,-3.929709,5.823461,14.1636
0.2639925548352949,0.2007033092502262,0.9579364928578004,-0.0006676297095962,0.0013902483867292,-0.0031016229561986,-8.803337552678483e-06,-6.197673748890755e-07,-2.382378428288298e-06,11970,-4.093392,6.573552,14.113689
0.1995278342010509,0.0537278544177333,1.0334130379252329,-0.0005391798465417,0.0009940198593134,-0.0041353029413683,-8.193674440936036e-06,-1.697871963294114e-07,-3.182854644765989e-06,11971,-4.589428,7.648852,14.984667
0.0617608324567361,-0.1593613008949221,0.9753075078579448,-0.000317792456397,0.0004877923392506,-0.0050137439893007,-7.529515219349193e-06,2.152000499288832e-07,-3.810820523748163e-06,11972,-5.069593,8.517428,15.768599
-0.1081063628454721,-0.3469403794924663,0.8960406983394872,-3.7019680118363218e-06,-0.0001588712949927,-0.0057519622912934,-6.716127163688721e-06,4.578069438919637e-07,-4.051130329091405e-06,11973,-5.222993,8.831346,15.220967
-0.1756519603909207,-0.5278246607392101,0.7976702365734021,0.0003908682912336,-0.0008727309833945,-0.0063544401672423,-5.692522791859098e-06,4.935178806100985e-07,-3.72848794169355e-06,11974,-5.105786,9.027598,13.829602
-0.1503829904357057,-0.7581685330342308,0.6269041704569971,0.0008406927282699,-0.0014560761330475,-0.0068146506037807,-4.430892270352131e-06,4.315080872243785e-07,-3.0667169412264027e-06,11975,-4.647903,9.26986,12.283077
-0.1164524009832671,-0.9478725536616112,0.3780189183419823,0.0012909381637944,-0.0018400141094659,-0.0071459221873064,-2.970857556716369e-06,4.228931528383805e-07,-2.4201185139712385e-06,11976,-4.156381,9.623359,11.025639
-0.0464426765951017,-0.9858171373963236,0.2114157986638517,0.0016491924280633,-0.0020674193587365,-0.0073770601708806,-1.4251705113379835e-06,4.433034016046178e-07,-1.7934633702330518e-06,11977,-3.60262,10.14351,10.175133
0.0831037418988533,-0.8920337665641555,0.2400793249442249,0.0018759957454192,-0.0021049749235319,-0.0075157738361697,1.2791024109387344e-07,4.151491155014574e-07,-1.0562725609636928e-06,11978,-3.066684,10.7059,9.250554
0.1923458964050297,-0.7213354469324021,0.3148278953940241,0.0019858015434417,-0.001890294986691,-0.0075509344526804,1.706426728336347e-06,4.074538245277079e-07,-3.5260234129010824e-07,11979,-2.604599,11.262304,8.141003
0.2382121810743452,-0.5305147262108443,0.301304990869808,0.0019970129671771,-0.0014397779767058,-0.007467643188874,3.2975941083165576e-06,5.049611590763199e-07,1.281995057116327e-07,11980,-2.189478,11.786392,7.014846
0.2709168794531457,-0.4095622241222473,0.2595999852373431,0.0019592253618828,-0.0008363280731168,-0.0072369161998319,4.823241599406638e-06,6.701890780151381e-07,4.3357662093915e-07,11981,-1.759441,12.363549,6.118365
0.323581650924679,-0.38030100966069,0.240287777285767,0.0018938505111954,-0.0001218408226333,-0.0068457726507683,6.238353831106374e-06,8.449666858323423e-07,6.677641605571459e-07,11982,-1.318885,13.006906,5.482587
0.3634491874989884,-0.3566382870813343,0.2331332602000466,0.0017899168145745,0.0006841148733036,-0.0062989096915353,7.503162367923505e-06,1.003587567564611e-06,8.742019978536135e-07,11983,-0.938144,13.680717,5.040828
0.3525601528732063,-0.3021976264326178,0.2585020641239004,0.0016557034822277,0.0015186346661072,-0.0055962422146368,8.569450507004543e-06,1.1278659138353085e-06,1.0823686784805992e-06,11984,-0.638586,14.322835,4.603068
0.3079046007649216,-0.2596359673057422,0.3104718804866395,0.0015044869953329,0.0022875162986702,-0.0047410842645447,9.472363119219928e-06,1.237935328993768e-06,1.2582411620624906e-06,11985,-0.413142,14.896147,4.128994
0.2664924724917124,-0.2199631744685458,0.341479065412097,0.0013418643407669,0.0029444911113509,-0.0037377587588,1.028603384640362e-05,1.3597096806541695e-06,1.3583275413657366e-06,11986,-0.222289,15.419408,3.709047
0.2049411785330183,-0.1793419020407302,0.33195985109117,0.0011707816338328,0.0034876243167598,-0.0025901201237137,1.097996830159978e-05,1.4837372539712355e-06,1.387511979660829e-06,11987,-0.086709,15.894204,3.374897
0.1031949124262505,-0.1078072706754073,0.2988413483227868,0.0009873981867539,0.0039269295497283,-0.0013098856236293,1.1443089394226558e-05,1.6021783109651872e-06,1.3299504966322783e-06,11988,0.019581,16.297765,3.200583
0.030797546511661,0.1478942214270552,0.2430238208537223,0.000778169888435,0.0043083732471522,8.285150640175484e-05,1.1627881515506804e-05,1.6713694088786565e-06,1.2667773264195858e-06,11989,0.133074,16.58288,3.224402
-0.0067511162692686,0.5361866863170504,0.1512660863202951,0.0005381362255659,0.0046515096962804,0.0015601740884488,1.1549708849468893e-05,1.5891175658459151e-06,1.4272360459949468e-06,11990,0.314727,16.702198,3.40303
-0.1501379257423502,0.7770719775511322,0.0771777365562839,0.0002699633159666,0.0049486732070261,0.003082045697722,1.1191037068941072e-05,1.3075868092654426e-06,1.917501771165099e-06,11991,0.574531,16.572746,3.55739
-0.4183111039416103,0.9347903454992152,-0.0033420372798871,-2.7644361013562423e-05,0.0052174082056415,0.0045911019483564,1.054866507211543e-05,9.12275479318254e-07,2.552540576785586e-06,11992,0.767353,16.297663,3.6401
-0.61138942260474,1.268935253487956,-0.2659634195301145,-0.0003561590838034,0.0054883829605903,0.0060066818276899,9.713073454587946e-06,5.537207521310713e-07,3.0207768795767155e-06,11993,0.886771,16.000166,4.137323
-0.6429145093163718,1.606741605184431,-0.6398555111520574,-0.0007127752020039,0.0057721297189166,0.0072819909798916,8.782272531854416e-06,2.9432734829503405e-07,3.2046623093008724e-06,11994,0.896693,15.662856,4.964088
-0.652401203127513,1.6541239807921386,-0.8127546255224496,-0.0010907716468749,0.0060632720320436,0.0084055965096359,7.774878191622889e-06,1.0507959433555759e-07,3.179609742109537e-06,11995,0.668903,15.241641,5.683932
-0.7214007061673411,1.4388645378309572,-0.7955674873592253,-0.0014782783536508,0.0063481385252317,0.0093690804528478,6.670465826727058e-06,-2.2074383049477493e-09,2.9280136323943884e-06,11996,0.295433,14.657499,6.059212
-0.7775933531038087,1.03541786530639,-0.8476642142980935,-0.0018559262444477,0.0065952102280278,0.0101848090743839,5.445622889659851e-06,-2.1298949453442493e-08,2.4313289217663104e-06,11997,-0.112057,13.996059,6.434456
-0.7617125767402686,0.5791156081295383,-0.95825517428803,-0.0022068333654409,0.0067874965927016,0.0108482413104456,4.067704379197426e-06,-4.411736883410841e-08,1.8819476192387743e-06,11998,-0.497316,13.282636,7.071923
-0.7043580911945733,0.3085448633294712,-0.9810641570471376,-0.0025153526016915,0.0069222593015829,0.0113356064073905,2.526155068727423e-06,-1.7000328590502412e-07,1.5046087624348413e-06,11999,-0.817632,12.535301,7.995718
-0.6248107268390612,0.0979725618644732,-0.9646851620513688,-0.002758649458528,0.0069865375948435,0.011637713868603,8.994019649053373e-07,-3.855968399908462e-07,1.2976928872720725e-06,12000,-1.146806,11.803697,9.072615
-0.4840070311806167,-0.3037740973167691,-0.9744332646402578,-0.0029072550953348,0.0069637700809824,0.0117516212526857,-6.836323455058178e-07,-5.771303015727322e-07,1.0447492716238487e-06,12001,-1.507515,11.147786,10.121678
-0.32184050923573,-0.6824018143795918,-0.9619316587670724,-0.002945607544351,0.006846823955423,0.0116765999728283,-2.1572179695573622e-06,-6.779109940983638e-07,6.199277113869596e-07,12002,-1.891818,10.523511,11.013505
-0.2208970523183078,-0.7641684733382863,-0.9043616731647112,-0.0028726258257825,0.0066365805556801,0.0114195225534662,-3.4871850786563986e-06,-7.213076808610375e-07,1.267605661285643e-07,12003,-2.352743,9.847389,11.587366
-0.1062348443316619,-0.6782656542452619,-0.8318382638138535,-0.0026929761021057,0.0063410550422516,0.0109935775664306,-4.610018170319439e-06,-7.130162153030458e-07,-3.809110965308914e-07,12004,-2.788898,9.13675,11.927356
0.1300874665853236,-0.6230059927552718,-0.7717529186939651,-0.0024245898418266,0.0059801852571424,0.0104211086144623,-5.506087324019165e-06,-6.198443387466169e-07,-9.706702630961788e-07,12005,-3.181186,8.50135,12.31435
0.405849385992331,-0.6017872426252966,-0.7151415902341508,-0.002085685463149,0.0055736201020793,0.0097194590546111,-6.2490027876408514e-06,-5.03721807424547e-07,-1.5384108028324574e-06,12006,-3.477398,7.993746,12.802037
0.569022096711731,-0.5377880241700217,-0.6069476703422008,-0.0016967678945672,0.0051431922253687,0.0089015837691904,-6.924813856953493e-06,-4.976667831367776e-07,-1.821774634091066e-06,12007,-3.668082,7.562459,13.285362
0.5819796402222531,-0.3529318181836507,-0.4231219570566399,-0.0012968100240183,0.0047260200408176,0.0079874817151611,-7.5310107722123555e-06,-6.227534220944922e-07,-1.7815585871127518e-06,12008,-3.769749,7.117421,13.592414
0.5284102290897045,-0.0689773226238429,-0.2428519853992874,-0.0009448833542905,0.0043758285231177,0.0070020677809219,-8.039285874915702e-06,-7.693741276630293e-07,-1.6626071980412611e-06,12009,-3.818341,6.724886,13.854911
0.5444951048362222,0.1430420495849879,-0.1136454841870271,-0.000668834236121,0.0041191485940075,0.0059640619717854,-8.494560078369371e-06,-8.758716862463144e-07,-1.6199817829374464e-06,12010,-3.819529,6.405219,14.110304
0.6529096789516657,0.1898877256913044,0.0407350933049941,-0.0004648601394947,0.0039546337005988,0.0048869011427453,-8.913852571980233e-06,-9.716136479349624e-07,-1.5863836698090915e-06,12011,-3.784953,6.149408,14.284453
0.7412115915142456,0.1625408046680498,0.2327547727448831,-0.0003233121701352,0.0038748105297633,0.0037829473906674,-9.199334779269127e-06,-1.0446381729844387e-06,-1.5455754004009536e-06,12012,-3.778896,6.020741,14.431579
0.7696031026916694,0.1413638282327169,0.3746782113128492,-0.0002124243636533,0.0038517668231294,0.0026604629212966,-9.22971143676433e-06,-1.023681738050231e-06,-1.610679530309558e-06,12013,-3.826253,5.973536,14.440797
0.7337589267040374,0.1237630652120905,0.4447571590721624,-0.0001130741727671,0.0038665489316671,0.0015339138313705,-8.96889016999808e-06,-9.107755597249196e-07,-1.761073362649949e-06,12014,-3.954996,5.998971,14.331939
0.5631794722570356,0.1070883390196039,0.5264570720170922,-1.924856742706717e-05,0.0039088337253533,0.0004247219258189,-8.503953302740783e-06,-7.970896601249741e-07,-1.8245408874605668e-06,12015,-4.110927,5.953628,13.861462
0.2901820166192408,0.0903705160970494,0.7303084622975278,9.466325474136824e-05,0.0039478346852701,-0.0006456586713752,-8.00433043287041e-06,-7.33258758677642e-07,-1.7647429687485838e-06,12016,-3.943524,5.776333,12.756247
0.0378914492324409,0.0717327653459367,1.0024460408364515,0.0002684329965027,0.0039356412453042,-0.0016524608351476,-7.617924022723481e-06,-6.979331353632692e-07,-1.7029501793369775e-06,12017,-3.763538,6.235692,12.264401
-0.1557447038618842,0.0482529077400913,1.1226631726278884,0.0005183436264513,0.0038507779078796,-0.0025839936627333,-7.343448376204239e-06,-6.356591996133438e-07,-1.7615410611109871e-06,12018,-3.99282,7.074973,12.695294
-0.3120940472251965,-0.0110284605738501,1.0599512182594082,0.0008388753548734,0.0036968880532263,-0.0034443447877064,-7.022334619422525e-06,-4.871608143125068e-07,-1.994285252342408e-06,12019,-4.216597,7.899564,13.496612
-0.4484500216924723,-0.0999591540913089,0.9843528370997344,0.0012165546503711,0.003485396655411,-0.0042450794699229,-6.511391192773696e-06,-2.809261250070186e-07,-2.2649730439642217e-06,12020,-4.359769,8.343268,13.579926
-0.5515539756641152,-0.1885984394731293,0.8723798411644608,0.0016180680728425,0.003249173712243,-0.0050129527257442,-5.750290676176616e-06,-1.2526862172790804e-07,-2.2963231981862244e-06,12021,-4.202379,8.633838,12.909943
-0.5872144833930697,-0.3220970711323513,0.6147768095521335,0.002019361651853,0.0030080076816077,-0.0057415437799941,-4.686758407243365e-06,-7.790690231738274e-08,-1.93512949824929e-06,12022,-3.782772,8.993191,11.973935
-0.5511655608087291,-0.499553402806991,0.3631514115431107,0.002404608522038,0.0027689019916191,-0.0063868321056013,-3.3326861048051627e-06,-1.1997680195312248e-07,-1.2371721180805103e-06,12023,-3.165034,9.511902,11.116813
-0.4464843561406262,-0.5815560911980207,0.282642785459923,0.002739485080047,0.0025563950874708,-0.0068936268832265,-1.8153190184449527e-06,-2.0323603074262762e-07,-3.7558812762509673e-07,12024,-2.43757,10.271997,10.485873
-0.2853700229534198,-0.5089389995759408,0.2965535023281515,0.0029745535599824,0.0024070639413118,-0.007177037047048,-2.1844186210624347e-07,-2.463762773735247e-07,4.28595552194394e-07,12025,-1.791964,11.100789,9.716224
-0.1077073584295618,-0.4024255000660172,0.2981710664979807,0.0030855838257769,0.002339427554632,-0.0071974967570646,1.5200433822365997e-06,-1.4481590466149706e-07,9.704519404040557e-07,12026,-1.333203,11.851473,8.617563
0.0774407832819996,-0.3552859532131151,0.280138833172758,0.0030726815384212,0.00235602806404,-0.0069664660965146,3.4012499437197427e-06,1.2319831542881577e-07,1.1984277342841754e-06,12027,-0.978827,12.557732,7.453146
0.255437594273998,-0.3573988302493563,0.2590566889269352,0.0029436381833681,0.0024542415507012,-0.0064973301826661,5.184241728372033e-06,4.330902035065199e-07,1.2841288048332407e-06,12028,-0.592477,13.271608,6.455454
0.3372092482918674,-0.3772657624589141,0.2385171528232981,0.0027269011518313,0.0026173912631337,-0.0058299205575211,6.613712064980073e-06,6.472907090570087e-07,1.4309524283388485e-06,12029,-0.196715,13.966312,5.714978
0.3067057582639111,-0.3727056908694122,0.218631947234595,0.0024417303883038,0.002839819007023,-0.0049914161688241,7.687844429368509e-06,7.470353608681067e-07,1.6799816197341187e-06,12030,0.127646,14.60757,5.242999
0.2702352664914312,-0.3275035855606445,0.20807981176876,0.0020991067929183,0.0031271270001835,-0.0039941868640414,8.560748734384137e-06,8.07773512471579e-07,1.9218135263906072e-06,12031,0.41486,15.136755,4.902233
0.2590087779193409,-0.2591337972053444,0.211060109907151,0.0017299587945706,0.0034759322283306,-0.0028783485150388,9.33038701807758e-06,9.377340470183264e-07,1.9615872232392266e-06,12032,0.672665,15.529124,4.577005
0.2392607201496385,-0.1885214761152717,0.2139094820865706,0.0013818512808373,0.0038789570889234,-0.0017062192330838,9.990365735436684e-06,1.1939027043335173e-06,1.6783767598560898e-06,12033,0.857561,15.831364,4.258396
0.2220341280555994,-0.1536862672959652,0.2123661671198077,0.001076926299793,0.0043323481414126,-0.0005108391647046,1.0503527399590536e-05,1.503597965385932e-06,1.2130758956832894e-06,12034,0.925751,16.047602,3.904964
0.212778012255617,-0.1381415189033434,0.2105245888612996,0.0008132152008991,0.0048334115181107,0.0007007403776677,1.085671568977619e-05,1.7314918316196774e-06,8.53050983090224e-07,12035,0.910653,16.188037,3.640803
0.1837946172213156,-0.0634821058196961,0.188266260237857,0.000582640948807,0.0053800020632525,0.0019257812178339,1.1071472136950088e-05,1.8321729123322711e-06,7.141181134418448e-07,12036,0.873153,16.220673,3.470781
0.088896204207208,0.0882478710012179,0.1382062645240436,0.0003581317803326,0.0059717105462224,0.0031800758115739,1.119119738670618e-05,1.8601894785781385e-06,7.035742290829679e-07,12037,0.867162,16.131477,3.325844
-0.0661197506041718,0.2835205937625706,0.0903433846025293,0.0001257900111646,0.0065992840954811,0.0044562277266903,1.1222957018508632e-05,1.8399364019105824e-06,7.717231590237356e-07,12038,0.937298,15.910292,3.130032
-0.2248210617909197,0.5470777632641177,0.0524690868658343,-0.0001147290827453,0.0072432332960302,0.0057208335707936,1.113530519641257e-05,1.7517924212931507e-06,9.50294887441463e-07,12039,1.04156,15.632219,2.894913
-0.4242432083563558,0.8946416257618852,-0.020566140520373,-0.000377937491074,0.0078780080871805,0.0069449611183006,1.0875434053363512e-05,1.6069311581404385e-06,1.193690427240268e-06,12040,1.155023,15.381115,3.085792
-0.6384826229414395,1.1989264474233443,-0.1959655764293131,-0.0006865713786338,0.0084669124078843,0.0080920627800441,1.0309450777965976e-05,1.416125517424168e-06,1.406145867282211e-06,12041,1.215863,15.127661,3.814499
-0.6262756498976095,1.36351049533001,-0.4586176477407335,-0.0010484284481733,0.0089889844917604,0.0091364661319537,9.319939571440948e-06,1.177518163501298e-06,1.520174205520062e-06,12042,1.112847,14.820327,4.697987
-0.3848303145029294,1.3598720324303637,-0.6988018478738803,-0.0014580033263051,0.0094403000450241,0.0100672413074886,8.01488779401881e-06,9.432203711112122e-07,1.4639694228575922e-06,12043,0.893427,14.381635,5.413466
-0.2838450048593807,1.1029560083918055,-0.8798554682274425,-0.001902952112034,0.0098171883641777,0.0108706354460947,6.624075700216464e-06,7.887122821074546e-07,1.1834646861633897e-06,12044,0.519762,13.851934,6.048665
-0.4267832103132852,0.698235025301447,-1.012746256287158,-0.0023565870497616,0.010124576876748,0.0115364658200345,5.217073791912967e-06,7.070093288015404e-07,7.380897053415153e-07,12045,0.071827,13.278738,6.820942
-0.5430967824188783,0.3727570466295956,-1.0617310545097387,-0.0027971275586323,0.0103601484734663,0.012053405499535,3.732365076923512e-06,6.217541083649104e-07,2.775725338755315e-07,12046,-0.343081,12.636397,7.70665
-0.5045657709791994,0.1372344781677496,-1.0485279683555102,-0.0032062106320606,0.0105129515972089,0.0124075723617474,2.200432476917042e-06,5.062263784957646e-07,-1.2548235033132666e-07,12047,-0.70059,11.909186,8.538313
-0.3656014218475056,-0.0944724448551293,-1.0189038998874866,-0.0035508042714751,0.0105782065294702,0.0125906150828447,7.415454020193898e-07,4.045394275221557e-07,-5.252422072265322e-07,12048,-1.036333,11.239827,9.444102
-0.1701569399384826,-0.3297369859748538,-0.9395820180264084,-0.0037844894749487,0.010553618424119,0.0125990142091403,-5.760597783664255e-07,3.6024841753447857e-07,-1.0002207772364468e-06,12049,-1.456215,10.69076,10.300647
-0.0233549853612858,-0.5333236316712058,-0.8120137298184401,-0.0038842493065485,0.0104371043803227,0.0124324484141819,-1.7296520189248473e-06,4.0933885317227836e-07,-1.6251591286830644e-06,12050,-1.955279,10.15756,10.973624
0.0192805551824589,-0.643306853068343,-0.7201774438498212,-0.0038505164818306,0.0102289554436396,0.0120963550533375,-2.680618384473536e-06,5.878321750731591e-07,-2.458266486318962e-06,12051,-2.493286,9.612088,11.463596
0.1262112869533689,-0.6104291740941444,-0.6774961467806111,-0.0036909265602023,0.0099311782994179,0.01160450650129,-3.4370180638978662e-06,8.605950051549281e-07,-3.412320471032199e-06,12052,-2.989475,9.057676,11.767295
0.3984898367711025,-0.5385159701819382,-0.6275982013941324,-0.0034325866707642,0.009548255759525,0.0109817217226474,-4.081497640088688e-06,1.12161264459599e-06,-4.277811939137124e-06,12053,-3.336008,8.53712,11.981523
0.652434473350818,-0.5251047856474114,-0.5505316320249094,-0.0030966538046136,0.0090921576377781,0.0102460780419025,-4.6660454646113685e-06,1.324999776804918e-06,-4.977301964934872e-06,12054,-3.557125,8.084646,12.20756
0.7240480642546743,-0.4628884258430411,-0.4464533426923509,-0.0026996514443904,0.0085842427016581,0.0094100833431075,-5.178460192702095e-06,1.4948439295489564e-06,-5.566758756565023e-06,12055,-3.718339,7.686006,12.410672
0.6736895831064175,-0.2848608670941838,-0.3326058754843021,-0.0022795403512399,0.00805624665738,0.0084936923244209,-5.603032668780035e-06,1.6127554771497368e-06,-6.002995694216675e-06,12056,-3.869615,7.382569,12.606059
0.6173222017985002,-0.0861477760691328,-0.201764154074119,-0.001894203802808,0.0075550462677436,0.0075215213760878,-5.94861979991743e-06,1.6294967983964468e-06,-6.178584963791034e-06,12057,-3.972242,7.149025,12.756984
0.5897740775720679,0.0343455589183453,-0.0267891474914244,-0.0015716078400968,0.0071043408804435,0.006511842062097,-6.269356522867215e-06,1.5455931815230757e-06,-6.115640122607845e-06,12058,-3.968475,6.94993,12.75627
0.5829929903500344,0.0902645878172484,0.1190515204170781,-0.0013106614083132,0.0067032129924895,0.0054775691987192,-6.629367458858506e-06,1.4084417409898691e-06,-5.9518858516589605e-06,12059,-3.887359,6.814741,12.65588
0.6045890533783226,0.1467850890491225,0.1932662316706227,-0.0011043319024009,0.0063479216456146,0.0044299299818619,-6.972515131625921e-06,1.2637334874760773e-06,-5.7733995451414825e-06,12060,-3.874204,6.823094,12.656768
0.6241225309675718,0.1830423447714512,0.2930182429260971,-0.0009243669526253,0.0060196082068951,0.0033753519907072,-7.124855485033728e-06,1.1609266460555108e-06,-5.618583756328452e-06,12061,-4.004833,6.903905,12.66264
0.4808542884219757,0.1600402692538468,0.4424480291988167,-0.000757875754811,0.005707745072318,0.0023262140655659,-7.019605740178801e-06,1.168434288111146e-06,-5.602340871740785e-06,12062,-4.161343,6.924997,12.525495
0.0995127928170036,0.120397139471744,0.5936310053835501,-0.0006082144947465,0.0054108608960746,0.0013013383293186,-6.798882603931875e-06,1.289987834400116e-06,-5.784425384258719e-06,12063,-4.222285,6.635756,11.618784
-0.2557028072014052,0.1584555004463024,0.781536471579883,-0.0004631847677763,0.0051133223595899,0.000318496725501,-6.600346759788319e-06,1.4454209039298595e-06,-6.049426267923077e-06,12064,-3.884547,6.643582,10.604845
-0.345428582311731,0.2865463673750955,0.9997843301772852,-0.0003021383712299,0.0047889741275484,-0.0006025593192861,-6.403381018328213e-06,1.5988686809036202e-06,-6.313951396392861e-06,12065,-3.870242,7.250341,10.397116
-0.2966823612583245,0.3250089796781596,1.1278757789691,-0.0001173640953434,0.0044285682729173,-0.001445817938654,-6.167151346358985e-06,1.7790505676986031e-06,-6.624062626288329e-06,12066,-4.00419,8.166371,10.970605
-0.2286827874639638,0.1309049444057766,1.1080511202301178,8.844369917677876e-05,0.0040385045764117,-0.0022001496837267,-5.904444533559604e-06,1.9572493319671464e-06,-6.925179502075287e-06,12067,-4.135363,8.870004,11.231569
-0.0824588830586822,-0.1946427755649354,0.9947397143431066,0.0003074915410522,0.0036304529133537,-0.0028546260574972,-5.5340923825873655e-06,2.0243376775918757e-06,-6.9385044719945695e-06,12068,-4.205223,9.116281,10.324704
0.0531646660083062,-0.5185760786049203,0.8427845269954127,0.0005207187622002,0.0032298692116288,-0.0034007267877593,-4.89158371643103e-06,1.942007356547074e-06,-6.49568224407373e-06,12069,-4.066721,9.331306,8.905622
0.0690306159845895,-0.7701912611266036,0.7003375650182848,0.0007179088630009,0.0028549387374042,-0.0038310601974456,-3.98437699946489e-06,1.8098032683822867e-06,-5.812764095225152e-06,12070,-3.728399,9.705176,7.607597
0.0814932434724904,-0.8521324810099178,0.6021679744521493,0.0008975070993745,0.0025170481272611,-0.004139586607968,-3.0357841388354664e-06,1.6969896688262228e-06,-5.144346508073381e-06,12071,-3.285216,10.227333,6.651348
0.155300695033131,-0.7808447474046463,0.5374116069917036,0.0010511419239655,0.0022397251673641,-0.004324988555127,-2.2017979600270085e-06,1.5682911596641557e-06,-4.489270259567872e-06,12072,-2.813808,10.831624,5.845767
0.2023100597980253,-0.6973560390783862,0.5008868583930701,0.0011676224391013,0.0020557679664082,-0.0043915288601438,-1.4578411801321985e-06,1.4252282808876425e-06,-3.843648624573665e-06,12073,-2.423589,11.4177,4.885405
0.1879655404936738,-0.6512316248109414,0.4762390466496647,0.0012414546437242,0.0019713357695071,-0.0043408078687002,-7.958663389209952e-07,1.3277280205013525e-06,-3.334418882559387e-06,12074,-2.135205,11.971272,3.784691
0.1288151834745065,-0.6165801001049801,0.4248157967899403,0.0012717780211287,0.0019644873715861,-0.0041727556661491,-2.8437878631874644e-07,1.2652082404301854e-06,-2.964693236497012e-06,12075,-1.862646,12.559568,2.823022
0.0260162288751522,-0.5922268608315768,0.3574375598494286,0.0012612934597754,0.001997596072449,-0.0038915433899665,5.5907052947221694e-08,1.1698649842111366e-06,-2.5878756800909918e-06,12076,-1.6017,13.168263,2.088947
-0.1300039695234517,-0.5659853904419299,0.2959899710473735,0.0012190660636974,0.0020026638407959,-0.0035046959674428,2.3747374053060318e-07,1.0449718815582734e-06,-2.2071353288117712e-06,12077,-1.377673,13.754155,1.608822
-0.3341992436604251,-0.5300679653536271,0.2219416466902641,0.0011521152808002,0.0019424549066029,-0.0030282438457322,2.466775665523064e-07,9.368349695004576e-07,-1.942298558632532e-06,12078,-1.234414,14.275308,1.215558
-0.5129742723612629,-0.4875994441128026,0.146108856443753,0.0010663019357463,0.0018115405472667,-0.002489734685975,1.0840377658661537e-07,8.146323341485357e-07,-1.7177987019676696e-06,12079,-1.196976,14.703427,0.725672
-0.5849425207646672,-0.4397386244779716,0.1230876129650404,0.0009739219652258,0.0015932130724695,-0.0019284311969742,-9.93620007077602e-08,6.011688095800682e-07,-1.3243963065990392e-06,12080,-1.170051,15.054055,0.14049
-0.5721948632965647,-0.3931861753831771,0.1512970793828786,0.0008932639483834,0.001274724426037,-0.0014009526368337,-3.431694330531116e-07,2.907279513884692e-07,-7.368477181064841e-07,12081,-1.120327,15.355961,-0.525869
-0.5404980977477567,-0.3398553256033685,0.171601240557555,0.000832153472352,0.0008560212901308,-0.0009386773557241,-6.550052378283145e-07,-5.046554451178971e-08,-1.1712399825135093e-07,12082,-1.07064,15.585041,-1.225225
-0.505206489404918,-0.3008300223930917,0.1626769365909212,0.0007878758187637,0.0003486900373672,-0.0005462384500141,-1.0250124960527612e-06,-3.774389184860357e-07,4.4659742893542155e-07,12083,-1.038756,15.711217,-1.945224
-0.4863147463030953,-0.188131150023586,0.1169593629347419,0.0007545627849867,-0.000213366399291,-0.0002264034017775,-1.390336600707776e-06,-6.995657500916239e-07,1.0101761286060763e-06,12084,-0.988846,15.715903,-2.719042
-0.5465744635068832,0.2185719209950328,0.0275938004473572,0.0007176937097714,-0.0007665692259689,3.325277112774965e-05,-1.8079989673197e-06,-1.0950300458358669e-06,1.725745142463886e-06,12085,-0.866911,15.574415,-3.580646
-0.6732206946466921,0.8079636141069889,-0.0636231354032474,0.000665474163557,-0.0012922175983924,0.0002333531407172,-2.459449234981495e-06,-1.719059470898092e-06,2.8616464499476813e-06,12086,-0.583927,15.383855,-4.570938
-0.7857947634151687,1.1860360778196353,-0.1239853955507626,0.000588286030957,-0.0018180594240024,0.000360992305076,-3.3726794431576337e-06,-2.658458706217825e-06,4.601303881105104e-06,12087,-0.152237,15.247989,-5.62635
-0.8948602047689256,1.2835658411859137,-0.1585132419897844,0.0004670426173399,-0.0023775824626352,0.0004145931155228,-4.355859689619258e-06,-3.7824392029930624e-06,6.731509357607274e-06,12088,0.239776,15.165063,-6.361923
-0.9995648049449866,1.2908925527044517,-0.2140520220320521,0.000273915481494,-0.0030333819169687,0.0003981187626616,-5.263453578925749e-06,-4.8522026540285285e-06,8.766661640507035e-06,12089,0.579717,15.20807,-6.576898
-1.0608904698983024,1.245155348934771,-0.3669061624579559,5.139878056273665e-06,-0.0038078920578995,0.0003095526271722,-6.105986798345787e-06,-5.737448786834058e-06,1.0397551894704266e-05,12090,0.815416,15.299918,-6.91939
-1.192264600249333,1.1433990266032563,-0.5627662990328814,-0.0003171656095121,-0.0046772237114266,0.0001435171262893,-6.898813240010705e-06,-6.461043810656593e-06,1.1664081837813324e-05,12091,0.775668,15.246334,-8.019877
-1.4238879054663245,1.0269730139453803,-0.6629377388975998,-0.0006577986887208,-0.0056214391561779,-0.0001067766059694,-7.603555652010648e-06,-7.103540074931054e-06,1.2763302099489457e-05,12092,0.545595,15.119811,-9.386401
-1.5247936768416683,0.8633149289461908,-0.7156445700069437,-0.0009551336433444,-0.0066029024416255,-0.0004519473053841,-8.243442133924215e-06,-7.735839690356876e-06,1.3852000795009683e-05,12093,0.329529,15.016877,-10.476946
-1.3999733740606009,0.6646574805502286,-0.8466218219654615,-0.0011835025560604,-0.0075986999694116,-0.0008931430276867,-8.888473496379873e-06,-8.394779380220082e-06,1.4994964777952206e-05,12094,0.133472,14.952347,-11.357256
-1.1786378156589736,0.4562208003028228,-0.9851644453397714,-0.0013561966877182,-0.0086052611363483,-0.0014208417610134,-9.458177992212256e-06,-9.029346581535357e-06,1.6118329705649962e-05,12095,-0.109984,14.832124,-12.494781
-0.8965791370349672,0.2237431009282503,-1.0166501176795577,-0.0014852598442578,-0.0096045016672856,-0.0020217194541949,-9.7423699527487e-06,-9.488697956908663e-06,1.6975077246379316e-05,12096,-0.404328,14.630308,-14.056953
-0.6038494804203143,0.0559788995580433,-0.9756513374780358,-0.001600384106462,-0.0105717631734009,-0.0026734210168993,-9.646576544875356e-06,-9.670033682372396e-06,1.7374020685688568e-05,12097,-0.705994,14.408789,-15.997648
-0.4537449260050256,0.020438582048067,-0.919625070572456,-0.0017094487270743,-0.0114922500103364,-0.0033637597130094,-9.25328633876744e-06,-9.65431608819594e-06,1.7455184516279813e-05,12098,-0.997805,14.214717,-18.144914
-0.4108531777444151,0.0390488062969723,-0.8638065747508467,-0.001793626177676,-0.012357968420117,-0.0040916174194503,-8.695294071142112e-06,-9.607634678460962e-06,1.7528988207244627e-05,12099,-1.263766,14.08171,-20.327318
-0.3316663362492922,0.0312265620453622,-0.8274572640159253,-0.0018407107209944,-0.0131657942173462,-0.0048532238601259,-8.053514109880216e-06,-9.59901069941708e-06,1.7721710546108146e-05,12100,-1.512162,13.971178,-22.624096
-0.1722067438353548,0.0131915084218903,-0.7993855693805545,-0.0018331837402944,-0.013921896957041,-0.0056474255785675,-7.324947877843356e-06,-9.575428049984786e-06,1.7931279466364392e-05,12101,-1.747246,13.887588,-25.051392
0.0719505392490235,0.0444068318397204,-0.7534580248784735,-0.0017647934864807,-0.0146260932154157,-0.0064639780774003,-6.461494142805346e-06,-9.466984667623446e-06,1.8029394623541204e-05,12102,-1.935257,13.847348,-27.60301
0.3106623299426472,0.1231563526992052,-0.6927618559239189,-0.0016453299000951,-0.0152724648391904,-0.0072808251894168,-5.445196660127168e-06,-9.249208623096513e-06,1.7959708876154847e-05,12103,-2.070251,13.866676,-30.270372
0.4024908359654617,0.1706080036090215,-0.6383753514963086,-0.0014847018656372,-0.0158613146072125,-0.0080722342557103,-4.3071767381602105e-06,-8.926298992292583e-06,1.7709548552642084e-05,12104,-2.18394,13.933624,-33.034722
0.3971988353174327,0.1495275135666406,-0.6078853886663919,-0.0012999216579148,-0.0163965032015569,-0.0088033251530186,-3.0779782941616497e-06,-8.535241350349842e-06,1.735048450702869e-05,12105,-2.309763,14.057077,-35.833693
0.4676866973236639,0.1188747041460636,-0.5808129002091686,-0.0010991812925767,-0.0168792613800002,-0.0094580644058626,-1.7816230305844194e-06,-8.147270788128127e-06,1.7028562018090426e-05,12106,-2.432564,14.24342,-38.582213
0.6363895893961218,0.118331120144135,-0.519304440487196,-0.0008797793796438,-0.0173096521140237,-0.0100420746863194,-4.704547802216529e-07,-7.778922017756263e-06,1.675009659104457e-05,12107,-2.512515,14.470899,-41.293987
0.822758588468476,0.1277839418906274,-0.4251194342802317,-0.0006415583674798,-0.0176884594431415,-0.0105663134256012,8.127189662074206e-07,-7.332277129664659e-06,1.628135784468818e-05,12108,-2.581443,14.693518,-44.030001
0.9578897226042614,0.1295079849115204,-0.3424196560987493,-0.0003819778841038,-0.0180162549467123,-0.0110576523430647,2.081409679929721e-06,-6.715726578187853e-06,1.5435593934496786e-05,12109,-2.679703,14.842997,-46.856269
0.9377186090815254,0.1168460697492844,-0.3021261528699094,-0.0001049532448141,-0.0183018034028344,-0.0115261359347664,3.3434837615500743e-06,-5.964411238332031e-06,1.429967415821149e-05,12110,-2.802982,14.91171,-49.824129
0.7768442335615917,0.0944529922142343,-0.2375760385382615,0.0001769028574419,-0.0185638115490068,-0.0119632112627728,4.562277245106606e-06,-5.1694966472514295e-06,1.3060194746014708e-05,12111,-2.871311,14.876696,-53.081132
0.6610300023220637,0.058830039250394,-0.0436986756873312,0.0004494839781732,-0.0188282574464789,-0.0123666989896422,5.752444499186123e-06,-4.390324448802043e-06,1.1858900691764042e-05,12112,-2.816613,14.958641,-56.454232
0.6333765705023822,-0.0171414255757254,0.2500464499172221,0.0006932686770172,-0.019133315505448,-0.0127321414747775,7.006087621931341e-06,-3.657009834964792e-06,1.080434748219606e-05,12113,-2.375821,15.452808,-59.502849
0.5800385704343798,-0.1290612435488152,0.4974037017277709,0.0008975320447129,-0.0194980260001262,-0.0130572638743985,8.37644843148199e-06,-2.9555387889768297e-06,9.87731762019408e-06,12114,-2.168208,15.907772,-62.31909
0.5219999923101666,-0.2219511470412085,0.6130306453825862,0.0010617963736059,-0.0199206737762983,-0.01334456428783,9.819776033323806e-06,-2.217522007475621e-06,8.892187441014223e-06,12115,-2.176282,16.327685,-65.097792
0.524085761048783,-0.2560888855086068,0.6341097500731876,0.0011862088009158,-0.0203972236648407,-0.0135927618037829,1.1247373541697024e-05,-1.379530093777026e-06,7.668259884550212e-06,12116,-2.407769,16.698648,-68.094976
0.531554573684937,-0.25156478757917,0.6183114877437219,0.0012764317657377,-0.0209110613812924,-0.0137983589855013,1.2580247787001397e-05,-4.482375987673258e-07,6.194030344526292e-06,12117,-2.605096,17.02044,-71.271247
0.5201822464677609,-0.2437711434175554,0.5771544881701463,0.0013362489320569,-0.0214511529039398,-0.0139578804682846,1.3731958748090915e-05,5.018470075360599e-07,4.601409154809858e-06,12118,-2.692473,17.324157,-74.388376
0.5140054490584045,-0.2411714588875628,0.5213804844744978,0.0013673331247224,-0.0220124217517803,-0.0140664146805047,1.4610154340117788e-05,1.3904916719995413e-06,3.029891462712626e-06,12119,-2.604124,17.590026,-77.445256
0.5052299591412961,-0.2580905733408054,0.4691972160290095,0.0013778204842238,-0.022576694048724,-0.0141171311001364,1.5216318875713562e-05,2.2127652206030877e-06,1.492934731650856e-06,12120,-2.485693,17.809894,-80.597261
0.4994201463595017,-0.2937754378668155,0.4209734944273109,0.0013816308044633,-0.0231149275618756,-0.0141007689812858,1.5661821977246255e-05,3.07422664098749e-06,-1.983036478676819e-07,12121,-2.39781,17.951735,-83.895557
0.4962250278908617,-0.2942825120751103,0.3880225601641122,0.0013852382924925,-0.0236122528281601,-0.0140150364293368,1.6047834291478493e-05,4.108284548510767e-06,-2.3002856281173896e-06,12122,-2.371501,17.998664,-87.43768
0.4731970589824566,-0.2485837148405293,0.374029136791609,0.0013882943677926,-0.0240665317049618,-0.0138654932333268,1.6401453874206e-05,5.333670229806006e-06,-4.842418673166494e-06,12123,-2.412309,18.007353,-91.188945
0.447556896898898,-0.2111765551514608,0.3225549405889373,0.001389790521895,-0.0244773679403714,-0.0136612703322983,1.668341422932976e-05,6.61732416359487e-06,-7.546119894786939e-06,12124,-2.523422,18.025357,-94.930789
0.4603715691033701,-0.1889715716879362,0.2128327406225245,0.0013844079800114,-0.0248530157324067,-0.0134190258398067,1.679757965127985e-05,7.784371173440798e-06,-1.007027444144377e-05,12125,-2.694095,18.034745,-98.596752
0.5195845362013006,-0.1463922511204016,0.1398316725220995,0.0013729091685932,-0.0251900276985669,-0.0131580763655276,1.6630509972397727e-05,8.7339446415416e-06,-1.224662944483682e-05,12126,-2.887758,18.006842,-102.197973
0.6037015113088904,-0.0784206887353024,0.1576526405048617,0.0013630527107455,-0.0254716700855517,-0.0129020849277798,1.6126563530147996e-05,9.462213063158449e-06,-1.4088923577134025e-05,12127,-3.012913,17.905726,-105.673096
