AccX_processed,AccY_processed,AccZ_processed,GyrX_kalman,GyrY_kalman,GyrZ_kalman,MagX_processed,MagY_processed,MagZ_processed,PacketCounter,Roll,Pitch,Yaw
0.1371040187696793,-0.6527509528866476,0.1554813685118778,-0.000722165746448,-4.705125089550933e-05,0.0001907009921283,2.2933607298270308e-06,-1.2978895474163607e-06,-7.98504416231926e-06,11582,1.181118,-1.214836,9.570143
0.4142902988861899,-1.9371663969997737,0.4922156489649216,-0.0006582085045353,5.29683954477257e-05,0.0001375764357559,2.834193947175382e-06,-1.4617154448780047e-06,-9.176186843247012e-06,11583,1.174288,-1.213868,9.562818
0.5448639305388024,-2.5445780133343554,0.6548528191529616,-0.0005092889765242,0.0002069750648728,5.508982032569962e-05,3.2267619834365727e-06,-1.599003248886701e-06,-1.012890188293786e-05,11584,1.175306,-1.217652,9.591969
0.3965794203756659,-1.849839214926773,0.4926132946991522,-0.0003221220305287,0.0003609017403009,-1.8143900629749604e-05,3.4710648386106017e-06,-1.7097529594424496e-06,-1.08431892813918e-05,11585,1.174543,-1.205791,9.605091
0.3999632384396356,-1.8754473291275064,0.4950971345872574,-0.0001270054426113,0.0004826072021747,-5.4450725025866094e-05,3.567102512697468e-06,-1.7939645765452494e-06,-1.1319049038608833e-05,11586,1.176223,-1.195966,9.607003
0.3689048032397616,-1.7590381511921758,0.4666831657950966,5.200812202055331e-05,0.0005609257500686,-3.863226618569648e-05,2.841181500878474e-06,-1.5058466837085097e-06,-9.388768442188564e-06,11587,1.171285,-1.193133,9.629631
0.2980407446725089,-1.5103137933352784,0.4064983784066053,0.0001977316478799,0.0005922224987196,3.442459870288319e-05,2.660177129263516e-06,-1.5569291988121607e-06,-9.497298649648828e-06,11588,1.162434,-1.190068,9.575275
0.2620592698411869,-1.429623627091869,0.3792965362646944,0.0003001677055915,0.0005890091313954,0.0001542975627214,3.114430694107805e-06,-1.9482736062505505e-06,-1.1720559887402345e-05,11589,1.168887,-1.199045,9.592667
0.2152345465381001,-1.2314123027967472,0.3209311524818435,0.000353645021813,0.0005575646488588,0.0003139741626236,3.655048961524994e-06,-2.3319062776324468e-06,-1.3976949322127046e-05,11590,1.172961,-1.203541,9.63124
0.1853350014654516,-1.0563550194174702,0.2738935189707038,0.0003577454123401,0.000497895305929,0.0005078543368783,4.0941326948508434e-06,-2.606499781393686e-06,-1.5637779921520547e-05,11591,1.170075,-1.200998,9.640988
0.1557490351627959,-0.9115704557629885,0.2379865034324784,0.0003208238396551,0.0004236838923869,0.0007149523570637,4.5788984329364616e-06,-2.8986881063749626e-06,-1.7419360600377467e-05,11592,1.15591,-1.192911,9.592947
0.1103287124771548,-0.7247042274934001,0.185715196008998,0.0002616334088101,0.0003591095448744,0.0008997245562206,5.003773468513311e-06,-3.1615360008294992e-06,-1.9017861439731303e-05,11593,1.140635,-1.187987,9.571199
0.1046473200023043,-0.5619400628641752,0.1420964882993867,0.0001882405228191,0.0003148343932859,0.0010460366517269,5.275780489630599e-06,-3.3083137073034945e-06,-1.9949106241330534e-05,11594,1.115059,-1.167599,9.560627
0.1391251532355149,-0.3786251274412028,0.0984112178094554,9.798714950133744e-05,0.0002893245915713,0.0011564632216144,5.523646274900466e-06,-3.3801512858813967e-06,-2.0500089653237396e-05,11595,1.076931,-1.129806,9.48815
0.1624532915266738,-0.1936967875133186,0.0101180910107204,-1.0363954790041023e-05,0.0002785410886689,0.0012358217846739,5.769154989214049e-06,-3.38954538272986e-06,-2.073743136180647e-05,11596,1.026968,-1.088548,9.423798
0.1520945749941182,-0.0163477139690956,-0.1428716988270575,-0.0001423664703268,0.0002690649045554,0.0013011221280134,5.935549878182245e-06,-3.347396027659325e-06,-2.066066857242802e-05,11597,1.031195,-1.006118,9.328445
0.1280975310222435,0.1686943797323933,-0.2917743632542535,-0.0002937407518093,0.0002574381350883,0.0013569271939702,6.129445719709839e-06,-3.380278922093531e-06,-2.0968594936265745e-05,11598,1.085747,-0.869936,9.158261
0.0935403932018878,0.3479965865328956,-0.3648240438418638,-0.0004481884336845,0.0002510318871347,0.0013938449690571,6.499149620471493e-06,-3.5889142914454325e-06,-2.2255144733687264e-05,11599,1.177557,-0.737717,9.052308
0.0436604387107865,0.517107053678443,-0.3869506361826064,-0.0005874512014542,0.0002531683025913,0.0014085176069609,6.802679443998455e-06,-3.8050073062278383e-06,-2.352584729201929e-05,11600,1.276525,-0.625346,8.94348
-0.0078725752030249,0.6617073000053028,-0.4019257179826329,-0.0006858157359947,0.0002680464817597,0.0013973603744318,6.729709891937272e-06,-3.778230642271872e-06,-2.335194049696275e-05,11601,1.362061,-0.556069,8.783402
-0.0515271008936844,0.7863055392533723,-0.4169979631491262,-0.0007294406373702,0.0002984687205181,0.001357406354318,6.63339899122007e-06,-3.664583747856128e-06,-2.27524732109789e-05,11602,1.4674,-0.547944,8.660319
-0.0838544174549593,0.921193417846042,-0.4401776618417792,-0.0007183341897893,0.0003441355432415,0.0012885391815368,6.9444547614569e-06,-3.743624425470081e-06,-2.338331133359725e-05,11603,1.58446,-0.574362,8.464039
-0.1607539432395885,1.0715141009207536,-0.4485957924689886,-0.0006532492033582,0.0004061466473255,0.0011887347304179,7.240742544370728e-06,-3.792824927446667e-06,-2.384847422904331e-05,11604,1.69394,-0.635121,8.234812
-0.3434992705373449,1.217394308616589,-0.3920437912289807,-0.0005423055134731,0.0004859001228879,0.0010548779470018,6.959118621015395e-06,-3.46740455459195e-06,-2.207246534306748e-05,11605,1.840499,-0.701124,8.010818
-0.5430693740487131,1.3573715943655762,-0.2892422525906155,-0.000391465199212,0.0005829645610578,0.0008867637390341,6.286673124792891e-06,-2.8826646669489453e-06,-1.8756747970844693e-05,11606,1.98169,-0.7518,7.727494
-0.6279993296583296,1.4891244297647757,-0.2088936303229728,-0.000204274240198,0.0006952926273602,0.0006868854506595,5.656118122296734e-06,-2.371634001759889e-06,-1.5824418839867197e-05,11607,2.127119,-0.812995,7.442529
-0.6139758139434368,1.6043681251968067,-0.1727317800982068,6.698635732569963e-06,0.0008189610242564,0.0004596368644204,5.0476017406459945e-06,-2.0510716290813296e-06,-1.381582988040062e-05,11608,2.256744,-0.881919,7.208059
-0.6136982022898201,1.7347202825456622,-0.1631234096663083,0.0002205522637369,0.000947226562899,0.0002127923608436,4.245672849846929e-06,-1.8097637512474487e-06,-1.2036057922465692e-05,11609,2.420395,-0.944648,7.228059
-0.6473719887322402,1.895952510497679,-0.1751213623455625,0.0004271072025281,0.0010771015945274,-5.086662364662609e-05,3.505313303664179e-06,-1.674914066256966e-06,-1.0812674762512167e-05,11610,2.597867,-0.973121,7.46985
-0.5668029564019955,2.0450493261246425,-0.192757846591991,0.0006261023130407,0.0012094831614362,-0.0003339245952406,3.1841322982824632e-06,-1.7852652865820448e-06,-1.1079842046878229e-05,11611,2.76656,-0.995228,7.855873
-0.2951391362554385,2.170271816431585,-0.1920777342110978,0.0008181092641482,0.0013452654640233,-0.0006393093789351,2.8807329932891342e-06,-1.8814232113331244e-06,-1.1284395178481978e-05,11612,2.972521,-1.00875,8.184898
-0.0272450510763574,2.2902974683859862,-0.1858749843486632,0.0010098050720856,0.0014872738406717,-0.0009729338084404,2.122496056971133e-06,-1.5958783257337214e-06,-9.309316959023598e-06,11613,3.195565,-1.037204,8.301719
0.0490229876866149,2.3776818187047266,-0.1864910058238234,0.0011991911685815,0.0016362704525254,-0.0013391235292839,1.2839503908054529e-06,-1.0934513858256728e-06,-6.239683568247278e-06,11614,3.385761,-1.056304,8.111476
0.0204165916261028,2.407072706440073,-0.1865062674643237,0.0013742444710948,0.0017905454232155,-0.0017404051058623,8.482231817923594e-07,-7.466273119118573e-07,-4.230232258117891e-06,11615,3.641691,-1.130352,7.948914
0.0060322322945902,2.4189860528485774,-0.1870030067534239,0.0015236501600766,0.0019493694568127,-0.0021822303725306,5.794352814029394e-07,-5.302965716821681e-07,-2.9727454684444417e-06,11616,3.92345,-1.236005,7.84097
-0.0162478348599596,2.4317934597592217,-0.1908395225425372,0.0016321462676205,0.0021119014231055,-0.0026722728179058,-1.5405886417899746e-07,-6.321143104855297e-08,-1.5459992561170534e-07,11617,4.183034,-1.35867,7.607829
-0.0480650284859402,2.394992548383619,-0.2102842999829213,0.0016906292936074,0.0022773518487377,-0.0032118053889284,-1.452029817633286e-06,7.364469819236527e-07,4.687541003340911e-06,11618,4.451663,-1.524345,7.28781
-0.0727080135743571,2.322808166083266,-0.2386274708293571,0.0016977290663731,0.0024453429711012,-0.0037953747924954,-2.7026289597527504e-06,1.419815820347345e-06,8.932522817777317e-06,11619,4.720088,-1.729912,6.795737
-0.0716714706359988,2.3013050408709126,-0.2216193179899881,0.0016516782301784,0.0026150109986068,-0.0044137284624061,-3.7122518647806144e-06,1.853137045816477e-06,1.1795477034970908e-05,11620,4.9734,-2.013595,6.262711
0.0263273454983067,2.3221859208688653,-0.1527853277553072,0.0015538334859233,0.0027851042059321,-0.0050502949315927,-4.948517431298429e-06,2.443876933099297e-06,1.5589831115419e-05,11621,5.245591,-2.399679,5.795741
0.1799001017967369,2.2966528945111992,-0.0995238916498159,0.001404918937445,0.0029544917641528,-0.0056858307336217,-6.408795288161092e-06,3.239391090050371e-06,2.0539706303968424e-05,11622,5.578169,-2.892337,5.358706
0.2335507076537332,2.2301375773408614,-0.0826814140227372,0.0012046771995378,0.0031219999003995,-0.0062966192445763,-7.713147813325431e-06,3.918536185027982e-06,2.481595399326467e-05,11623,5.922338,-3.474434,4.902183
0.1696432948218789,2.1850567654848403,-0.0637441663644395,0.0009572212244495,0.0032861698045368,-0.0068465974301422,-9.082077064235104e-06,4.600017335358435e-06,2.916097803011292e-05,11624,6.359414,-4.139412,4.392678
0.1030721486593916,2.1363815816042138,-0.0370448070706693,0.0006708362292644,0.0034452564351541,-0.0072849039421965,-1.1015351098208577e-05,5.704417125542782e-06,3.597567309100082e-05,11625,6.974719,-4.892805,3.686882
0.0673494346063983,2.084858028339922,-0.0142981797102031,0.0003492698031117,0.0035972055009763,-0.0075835594503026,-1.3254721710871448e-05,7.093300807881264e-06,4.43915027611831e-05,11626,7.628448,-5.708641,2.589116
0.012998411741256,2.1118063065025385,0.007336260919642,-7.732386535979751e-06,0.0037395087970813,-0.0077381902922289,-1.4878339180085924e-05,8.059713600907737e-06,5.030407841178088e-05,11627,8.215654,-6.622953,1.253018
-0.0631398691983732,2.1989841089117186,0.0104274803600664,-0.0004000122237927,0.003869020547922,-0.007748168755807,-1.5629820373386776e-05,8.372615234825894e-06,5.24082401691547e-05,11628,8.674777,-7.624125,-0.098203
-0.1303308983174326,2.2413432842721703,0.011390495146766,-0.0008291403455976,0.0039817335824718,-0.0076286187767,-1.6188124796434374e-05,8.528377953820392e-06,5.360500563720973e-05,11629,8.823095,-8.583722,-1.327272
-0.17686071716326,2.2154018694869198,0.0683038628236428,-0.0012913300608357,0.0040722755250956,-0.0073856959641672,-1.6813645787198907e-05,8.736016795614955e-06,5.509392987807807e-05,11630,8.955036,-9.482619,-2.491701
-0.2039779422356262,2.1954729628207046,0.1610639158346851,-0.0017762895353989,0.004133434356219,-0.0070160955218824,-1.70709827767022e-05,8.711451999463603e-06,5.517836360429765e-05,11631,9.264602,-10.261046,-3.61387
-0.2202805210071324,2.242171509724663,0.2086037306327291,-0.002271383923588,0.0041556096509285,-0.0065306736381424,-1.6825544606364782e-05,8.472136462796436e-06,5.384073628760906e-05,11632,9.561321,-10.902025,-4.729173
-0.2423347748985294,2.3527127961555703,0.1898069750487551,-0.0027585333794739,0.0041258813349934,-0.0059505575779699,-1.6550342610503582e-05,8.484638428381801e-06,5.368275942520036e-05,11633,9.763139,-11.351782,-5.908206
-0.2538555828976951,2.4702791176036856,0.1468758084470336,-0.0032272611764336,0.004037758028827,-0.0052887183544427,-1.6716132360486013e-05,9.026432373873556e-06,5.6394829531028967e-05,11634,9.807618,-11.615588,-7.101978
-0.2174869454151142,2.495764724742875,0.1074368054361261,-0.003675548641133,0.0038917320329428,-0.0045529890918296,-1.703870265033765e-05,9.69327093720374e-06,5.982098588221593e-05,11635,9.751023,-11.73198,-8.219881
-0.1532199030821046,2.4015108380168453,0.0714852145223473,-0.004101178522044,0.0036902370612094,-0.0037539319274193,-1.683368998912848e-05,9.890073000226214e-06,6.0587715568928575e-05,11636,9.599611,-11.771314,-9.185139
-0.0168878583501715,2.261306473127231,0.0369412901007531,-0.0045058141857445,0.003441155030847,-0.0029016098458518,-1.605927846945434e-05,9.625769570578314e-06,5.870574575822499e-05,11637,9.389964,-11.7474,-9.953846
0.3011568259151714,2.1303429083870125,0.0097665338348928,-0.0048875449209721,0.0031524180959678,-0.002025686637489,-1.5138332300802771e-05,9.22297980991297e-06,5.60419054538757e-05,11638,9.019777,-11.665288,-10.595609
0.6479874006090953,2.0236479099275524,-0.0014014016150514,-0.0052400773487688,0.0028326523739775,-0.0011799828861889,-1.4129388568413688e-05,8.72755063367967e-06,5.286151995332463e-05,11639,8.516856,-11.54726,-11.081925
0.767375289883778,1.9318107350812168,-0.010303031016067,-0.0055597402647972,0.0024981628698978,-0.0004353650296214,-1.2816088695063015e-05,8.125578152099418e-06,4.893227341415371e-05,11640,7.996015,-11.386115,-11.569426
0.756454771382933,1.8206404031790928,-0.0240786304456365,-0.0058436094739802,0.002173522340815,0.0001083841283694,-1.1189954407966125e-05,7.544595071755612e-06,4.485369236154529e-05,11641,7.471493,-11.189096,-12.116433
0.813618552738707,1.6559906329262737,-0.0531506247675495,-0.0060608230559724,0.0018880165813583,0.0004028939185508,-9.110713717445829e-06,6.7809922963129685e-06,3.953985168500973e-05,11642,6.958395,-10.937716,-12.700568
0.8567453481194776,1.4019033345691896,-0.0994014688539004,-0.0061478274012298,0.0016790719742991,0.0004563698576983,-5.8291670218302165e-06,5.079606751363741e-06,2.8801392786233745e-05,11643,6.25867,-10.558451,-13.342561
0.7945399649611435,1.118030320060906,-0.1050056659661804,-0.0060145295476385,0.0015984521865881,0.0002882074163294,-7.87537907143275e-07,1.9164039621171745e-06,9.704580102824008e-06,11644,4.985527,-10.163192,-13.448238
0.7191577983168661,0.9389498026113584,-0.1052325713166453,-0.0055275840355987,0.0017162360214664,-4.298834397608079e-05,5.346601173836856e-06,-2.263706984287939e-06,-1.5102173099604842e-05,11645,3.267848,-9.873732,-12.988602
0.6304145674900535,0.8643246802472976,-0.1761914146815115,-0.0046723514157723,0.0020392225279836,-0.0004831017257577,1.1069093952173602e-05,-6.39872099682955e-06,-3.936747277942852e-05,11646,1.365643,-9.902844,-12.43376
0.4346346323202621,0.8572503026892057,-0.3247582683056267,-0.0035685183559926,0.0025025192323737,-0.0009798335488778,1.503170225004487e-05,-9.506894053796512e-06,-5.734016771769393e-05,11647,-0.130984,-10.169617,-11.888742
0.1774927609913487,0.7454431284938638,-0.7181000781508496,-0.0023927950922355,0.0030035372798975,-0.0014291908872564,1.6533293588114783e-05,-1.0989402650892352e-05,-6.560795977408047e-05,11648,-1.048466,-10.221354,-12.112115
-0.1271835990138383,0.0969554083258612,-1.376529244030818,-0.0014459978264153,0.0033657853167566,-0.0016743936031517,1.576636550669562e-05,-1.0819018571137605e-05,-6.41960720129773e-05,11649,-0.326885,-10.906163,-13.014327
-0.6238337166317172,-0.9547396909449312,-1.8118783233005091,-0.0008561142566894,0.0035157326712697,-0.001654574659227,1.3690557981047429e-05,-9.553107162401492e-06,-5.651925126330092e-05,11650,1.288875,-12.276197,-15.27214
-1.251905688810086,-1.5899564972346936,-1.7804999421018977,-0.0005613473052493,0.0034916263510605,-0.0014074925175825,1.1398261268336637e-05,-7.959820153122387e-06,-4.709769684858063e-05,11651,2.38701,-13.011413,-16.426946
-1.6467528867458503,-1.5992873876856153,-1.6962928673420972,-0.0005037774561133,0.0033308021966886,-0.0010008193252687,9.62110636230632e-06,-6.604459268368161e-06,-3.920979701058514e-05,11652,1.655485,-12.523819,-16.471071
-1.6614514243869176,-1.5256913936620515,-1.7522070354328152,-0.0005376384823345,0.0031240607998597,-0.0005830401755791,8.484027572083775e-06,-5.613193309610764e-06,-3.356746169829522e-05,11653,1.04837,-11.232578,-16.162249
-1.5370879679203755,-1.5472346283272858,-1.6923554077024725,-0.0005979310579654,0.0029126335893442,-0.0002181030126291,7.543551053309187e-06,-4.74499532073637e-06,-2.867126079872346e-05,11654,1.386702,-10.22331,-16.115996
-1.4475539158244035,-1.4908218205745558,-1.5046684358027371,-0.0007185028419997,0.0026776832516468,0.0001215098187077,6.458204704788329e-06,-3.876754002597693e-06,-2.3658677534522257e-05,11655,1.176887,-9.695093,-15.764953
-1.3728326793084034,-1.415231578135296,-1.3281985896134636,-0.0008743333889548,0.0024352242640683,0.0004315248519665,5.455248079454191e-06,-3.2310380968457804e-06,-1.9775959320122915e-05,11656,0.668099,-9.361067,-15.743442
-1.2990811795979225,-1.3870413734243423,-1.1582955416331775,-0.0010239437470297,0.0022102039150948,0.0007186366537375,4.7874936636048e-06,-2.909878073739115e-06,-1.7718206969591773e-05,11657,0.380123,-9.076879,-15.361238
-1.2191819194044036,-1.3666993280387176,-1.0170097096031605,-0.0011489937989295,0.0020135416182881,0.0009800890314038,4.369784547137678e-06,-2.701172138453278e-06,-1.639860371365249e-05,11658,0.206184,-8.714766,-15.063903
-1.1329111966166954,-1.353350809735762,-0.9220225553413574,-0.001238469847335,0.0018514086239519,0.0011910972774438,4.205243877010391e-06,-2.5073266005165783e-06,-1.5337381922525827e-05,11659,0.085165,-8.378881,-15.33605
-1.061305144280013,-1.3581426404409442,-0.8501715847195384,-0.0013003163794163,0.001717225085526,0.0013462626549918,4.363907133019336e-06,-2.3877905732235454e-06,-1.4873377889744824e-05,11660,0.162042,-8.111779,-15.935438
-0.9984379440501278,-1.3865131978584753,-0.7907138411931023,-0.0013699155899563,0.0015863723754203,0.001452600541669,4.570972340423098e-06,-2.2408315471439736e-06,-1.4317642344557782e-05,11661,0.179434,-7.895473,-16.34171
-0.984622148092084,-1.3737415398245794,-0.6951096616421149,-0.0014558527052663,0.0014478049281486,0.0015168410583961,4.499711946402733e-06,-1.9540280192026424e-06,-1.288208792039858e-05,11662,0.054349,-7.697609,-16.557441
-1.0824465516109505,-1.285789910885894,-0.5295170320838595,-0.0015421425413649,0.0013017691529225,0.0015528107432821,4.427826222515938e-06,-1.8008415538619882e-06,-1.2087544551638902e-05,11663,-0.114065,-7.520499,-16.677268
-1.194088008266598,-1.1830938140110423,-0.3702639118298747,-0.001621571904336,0.001138943180371,0.0015856093426155,4.925849316663638e-06,-2.178128526100152e-06,-1.4276832406594378e-05,11664,-0.271351,-7.39375,-16.794894
-1.183549418358283,-1.0804706636249406,-0.2958820917652985,-0.0016834896422594,0.0009460366782897,0.0016541755793292,5.84282037481012e-06,-2.9310628806674927e-06,-1.8595614728149068e-05,11665,-0.3818,-7.338718,-17.011022
-1.0849486441871272,-0.9799786543110848,-0.2665807944921937,-0.0017208169850205,0.0007166228608972,0.0017756675368474,6.531086104819488e-06,-3.539970294641393e-06,-2.205112451839512e-05,11666,-0.499033,-7.315211,-17.345105
-0.9417075673559904,-0.902038808315572,-0.2334207503425309,-0.0017334906261015,0.000449555730441,0.0019442361188439,6.789795144914524e-06,-3.774994762517396e-06,-2.3380612684221204e-05,11667,-0.683632,-7.296195,-17.691614
-0.7385780132010897,-0.8444031592543703,-0.1955619996288128,-0.0017167447119053,0.0001474666351853,0.0021506183089347,6.74448606522039e-06,-3.672726945272277e-06,-2.28567427316413e-05,11668,-0.89734,-7.212086,-17.968042
-0.5616987337205739,-0.8162226396967701,-0.1336653865372465,-0.0016635347728426,-0.0001799372014959,0.0023705194494816,6.388780351962965e-06,-3.254702648358481e-06,-2.058566898806961e-05,11669,-1.06689,-7.020394,-18.170708
-0.4807604066279708,-0.7560402869361174,-0.0466671193388893,-0.0015697730214552,-0.0005285663800574,0.0025903612909713,5.8558767688845545e-06,-2.635556655786497e-06,-1.72267934840984e-05,11670,-1.288964,-6.72871,-18.263053
-0.4329388946776273,-0.5633428340109932,0.0309468806829383,-0.001433088281485,-0.0008996488395676,0.0028082562303741,5.886134168449132e-06,-2.311176105507389e-06,-1.5719932267063863e-05,11671,-1.615992,-6.368175,-18.244911
-0.3778097647738663,-0.3430394626538637,0.0967510626728144,-0.0012522509198065,-0.0012903757744068,0.0030107418974726,7.028644573987426e-06,-2.708996300930477e-06,-1.851702750611031e-05,11672,-2.014898,-5.920923,-18.124835
-0.298305906703626,-0.2518424903188778,0.1682509193617335,-0.001028341905021,-0.0016964035988691,0.003177808277031,8.551643091227467e-06,-3.482903073624097e-06,-2.3388344979612284e-05,11673,-2.36899,-5.356584,-17.896262
-0.1710416335310315,-0.2589297528747987,0.2463296888631593,-0.00077052497103,-0.0021140411540359,0.0033071945513557,9.41049076259638e-06,-4.080926935336804e-06,-2.689358773855824e-05,11674,-3.229602,-4.653816,-17.729987
-0.0359460829359985,-0.3455714755789171,0.3532387688638944,-0.0004981497697404,-0.0025390820755008,0.0034141336722845,9.264480065435815e-06,-4.328368820278752e-06,-2.794190052981847e-05,11675,-3.278605,-4.473283,-17.674211
0.0509261950106808,-0.5121700478130645,0.5044990942037729,-0.0002413097405574,-0.0029670213506548,0.003525046269296,8.021502460413996e-06,-4.079650632540866e-06,-2.576880618481314e-05,11676,-1.648838,-5.461128,-17.27907
0.0489435690671963,-0.656126076635738,0.6289723649229099,-4.603610459792467e-05,-0.0033930789619767,0.0036870359968831,5.871238879444749e-06,-3.3094925365276328e-06,-2.040488677320873e-05,11677,-1.619824,-6.059456,-16.787276
0.0475832243478102,-0.7438747518422215,0.6701173223522473,7.152748622493577e-05,-0.0038075035030075,0.0039159760557127,3.52673747926552e-06,-2.35951806459198e-06,-1.4041076277817856e-05,11678,-2.335536,-5.709327,-15.725484
0.2101016403937915,-0.7831751583781437,0.661809907813375,0.0001277872911799,-0.0041945754046528,0.0041939774540054,1.6894584913854385e-06,-1.6148078777525374e-06,-9.059347986699072e-06,11679,-2.060046,-4.959892,-14.936
0.3782117452841356,-0.7535938139573384,0.6158626821279054,0.0001472505451053,-0.004533487498133,0.0045007751181718,4.079133314178309e-07,-1.1093073220642422e-06,-5.650409847214129e-06,11680,-1.719351,-4.424864,-14.672967
0.2886261118699665,-0.775428861378924,0.5667825318181501,0.0001787864571773,-0.0047953419628632,0.0047971858353558,-6.82508289164609e-07,-6.70414188015474e-07,-2.7024137620166403e-06,11681,-2.01409,-4.107255,-13.831968
0.116580253503792,-0.9326637889475756,0.5337256989973138,0.000239610438106,-0.0049640786929035,0.0050684104432109,-1.490475281486451e-06,-4.2709234352755946e-07,-9.048152808744844e-07,11682,-2.543297,-3.742652,-12.389756
0.1253980198778507,-1.0707117378077022,0.3562758879811353,0.0003114857562345,-0.0050374823997,0.0053282596180562,-1.739975767266748e-06,-5.57371132417834e-07,-1.3232540288129754e-06,11683,-2.944907,-3.172218,-11.190573
0.1863304681979985,-1.0766043673824783,0.0171157984635442,0.0003802476071081,-0.0050151171529758,0.0055858024336876,-1.576892625733593e-06,-8.881273286288612e-07,-3.017439033686657e-06,11684,-3.204436,-2.548569,-10.332302
0.1662663419105633,-0.989755618940494,-0.1769360005103231,0.0004190321746244,-0.0049051981899848,0.0058585411056686,-1.0604026048235208e-06,-1.3651526390316184e-06,-5.686355401290972e-06,11685,-3.2226,-2.063372,-9.742201
0.1838714104545471,-0.8520337431880837,-0.1167237528655026,0.0004185239602921,-0.0047123955294076,0.0061519154139094,-1.1790781483520894e-07,-2.127892407195647e-06,-1.0060347734410174e-05,11686,-3.240102,-1.752047,-9.207991
0.2665786404853333,-0.7293874048085034,-0.0443651320047749,0.0003920108567658,-0.0044377002948657,0.0064550654562256,9.0085288112037e-07,-2.9914567796646508e-06,-1.499073907092227e-05,11687,-3.447005,-1.442506,-8.580954
0.3011916824933957,-0.6754209548460222,-0.0557311927602822,0.0003485873392569,-0.0040913183037779,0.0067603200529578,1.5809891784569015e-06,-3.6160961550875727e-06,-1.852751943654201e-05,11688,-3.814654,-0.958837,-7.748271
0.2391358676735733,-0.6309583227744617,-0.039386562157931,0.0003031226254766,-0.003691328537425,0.0070561396295796,1.961829331325775e-06,-3.955293795718829e-06,-2.046622699192049e-05,11689,-4.092701,-0.221388,-6.758
0.1403043206245072,-0.5246030997250046,0.0077350488926391,0.0002631699630297,-0.0032472279478635,0.0073345108037635,2.1018993380328167e-06,-4.0201169354645975e-06,-2.0897625316055335e-05,11690,-4.21757,0.698909,-5.756786
0.1098464192738708,-0.3688356131202576,0.0477146241831401,0.0002257674721619,-0.0027612183475726,0.007592993592466,1.827124550070908e-06,-3.6622303657453816e-06,-1.897890400398758e-05,11691,-4.158435,1.566628,-4.99171
0.1686967041038804,-0.2325690366344071,0.0882662197161823,0.0001914535155821,-0.0022359537846164,0.0078253056117695,1.2209902581502017e-06,-2.917530938995997e-06,-1.4948799920848066e-05,11692,-4.058129,2.2989,-4.548302
0.2461347596487438,-0.1705537075584439,0.1233160602528282,0.000159862516181,-0.0016705372914798,0.008023484929458,5.052984194494869e-07,-2.021493694233836e-06,-1.0106253025395006e-05,11693,-4.032597,2.947507,-4.3178
0.2956449070188367,-0.1525235317416958,0.1741027953555748,0.0001339998877959,-0.001074940928256,0.0081750562437696,-3.595746730671723e-07,-1.0818625835194966e-06,-4.9388705013863325e-06,11694,-3.990318,3.527604,-4.128733
0.3152180452956517,-0.1318148022046895,0.2380918330386737,0.000122279664455,-0.0004721906035633,0.0082607216518799,-1.3621596059876056e-06,-1.150988441042931e-07,4.670748993976965e-07,11695,-3.977853,4.176283,-3.834844
0.3029652290313725,-0.1112722291991488,0.2649826417584968,0.0001335383882099,0.0001098602204313,0.0082558100191178,-2.2334676494913458e-06,7.923875579106855e-07,5.498181235799032e-06,11696,-3.821875,4.855091,-3.509164
0.2679402638575464,-0.0856883186973539,0.2601626502867126,0.0001793149653261,0.0006322745600627,0.0081271085201745,-2.8139156913653013e-06,1.5936952240596893e-06,9.805938002974637e-06,11697,-3.612454,5.526115,-3.269067
0.239771881047511,-0.0533416742687655,0.2835357215358378,0.0002678417561442,0.0010727057153299,0.0078516931935227,-3.252987803048939e-06,2.398222773609554e-06,1.4014568529607278e-05,11698,-3.455857,6.161748,-3.141336
0.2454213350079329,-0.0517682151665416,0.3323248769441517,0.0004033707494778,0.0014273336809252,0.0074174164778567,-3.460046611267336e-06,3.165375796218693e-06,1.7850661596685802e-05,11699,-3.461363,6.798077,-3.312738
0.291098344621546,-0.1135200158279862,0.3542547929913307,0.0005910449258188,0.0016930278212223,0.0068108150749071,-2.860120340751436e-06,3.5975097865279065e-06,1.9451916458041868e-05,11700,-3.580649,7.534567,-3.499938
0.3455810584137675,-0.2238947062928263,0.3705502695512335,0.0008350697554636,0.0018763184773739,0.0060224160256113,-1.2150565738985551e-06,3.636983469623015e-06,1.836376425630579e-05,11701,-3.581201,8.447075,-3.605313
0.375650099080996,-0.3450027239863429,0.4164737064808538,0.0011424812169004,0.0019781375418945,0.0050335693367988,1.1412042798973278e-06,3.495496579860972e-06,1.58550886088543e-05,11702,-3.510098,9.47858,-3.936889
0.3908788212271584,-0.4569714508777047,0.4844779246936752,0.0015240371097287,0.001992860650574,0.0038141934484614,3.886744001431214e-06,3.259055149962208e-06,1.2587840421039642e-05,11703,-3.653869,10.531513,-4.809637
0.4215580352387292,-0.5202363897774547,0.5446277997132505,0.0019914016155997,0.0019240967030082,0.0023320556720197,6.666084500539511e-06,2.9850514871440027e-06,9.117413230254418e-06,11704,-4.186657,11.622928,-5.851274
0.4515218088539114,-0.4946235044162005,0.5410638861700434,0.0025588502323457,0.0017820923697519,0.0005474670434831,8.808813484086629e-06,2.90999784329658e-06,7.096263026681398e-06,11705,-4.419101,12.466565,-6.814654
0.4316839274442268,-0.4456353136129959,0.6204212805123022,0.0032132828332983,0.0015783312834118,-0.0015230466829985,9.570410010593068e-06,3.278536944877898e-06,8.268691628975453e-06,11706,-4.185381,12.853,-7.439643
0.4198551130961242,-0.481317360703193,1.0329529525278538,0.003908903479678,0.0013288771233815,-0.0037958856236547,8.587207731986781e-06,4.092485326760602e-06,1.292460924872029e-05,11707,-3.739468,12.679692,-7.477197
0.4459161823127904,-0.6505811122762293,1.5424391320392663,0.0045774267292791,0.0010577120390059,-0.0061443518313919,6.018334528934821e-06,5.202411475856396e-06,2.02304246408339e-05,11708,-3.143906,11.886841,-7.572823
0.3144442408796892,-0.91402468953009,1.6983564221636462,0.0051116895031108,0.0007986250168389,-0.0083651637892778,2.4574296256088326e-06,6.42111084981011e-06,2.883321697699632e-05,11709,-2.220016,10.574313,-7.370758
-0.0207628146962531,-1.0469696072448065,1.5936354686996783,0.005453658670097,0.0005722054879742,-0.010341052165056,-1.1651409009068055e-06,7.380466282539183e-06,3.624756050913187e-05,11710,-0.983595,8.766593,-7.184388
-0.3186579463632148,-0.832272590771493,1.5505396869584578,0.0055973038404381,0.0003854828176601,-0.0120446439817347,-4.212475329181473e-06,7.793937672114367e-06,4.060468657420625e-05,11711,0.144759,6.55472,-7.060163
-0.5313367961073234,-0.463231684066241,1.5822187235322465,0.0055322780116209,0.0002450337630185,-0.0134293132891829,-6.835469744831546e-06,7.834115904382014e-06,4.284803454834893e-05,11712,1.028585,4.347578,-7.22361
-0.7587967027100615,-0.2309282460142808,1.6141206315267975,0.0052693717282012,0.000150106331003,-0.0144728646467039,-9.51187045373422e-06,7.923303041958435e-06,4.537218848885548e-05,11713,1.539828,2.204884,-7.225121
-0.8739629883297855,-0.0271736889127015,1.6054788994966065,0.0048041922860527,0.0001061357911594,-0.0151479123052847,-1.2589966156543424e-05,8.377230864988166e-06,4.995681710201293e-05,11714,2.127715,0.294053,-7.20901
-0.7822970751897567,0.1714802522570616,1.4778692946784706,0.0041127398676513,0.0001257614751641,-0.0154147390251118,-1.611135935863617e-05,9.21472025899756e-06,5.671887888307799e-05,11715,3.320966,-1.55921,-7.692721
-0.6683310267498248,0.2042648264181067,1.273790006082933,0.0031904877852526,0.0002164380881597,-0.0152732295533467,-1.977996110632425e-05,1.0238869228469571e-05,6.448632191031852e-05,11716,4.44215,-3.450877,-8.138817
-0.6390122989819638,0.4206106503340721,1.0623870272308904,0.0020446459144667,0.0003835147961443,-0.0147606339676523,-2.314980085430526e-05,1.122625462613351e-05,7.18516490921586e-05,11717,5.524479,-5.318954,-8.527733
-0.5269476415897495,1.150264134591018,0.805870880283215,0.0007104348279674,0.0006231794841666,-0.01391802215114,-2.5602704013703213e-05,1.188256387388702e-05,7.692874699987588e-05,11718,6.185476,-7.10846,-8.832639
-0.1428831660929578,1.9488888425384103,0.5683403643982676,-0.0007364838083079,0.0009188161615139,-0.012804777454761,-2.646451692411516e-05,1.186744092151045e-05,7.755234091908858e-05,11719,6.538523,-8.633029,-9.39329
0.3911346357536241,2.340139907581826,0.4499972747757301,-0.0021829359260637,0.0012437234690074,-0.0115264449215607,-2.5561748274139223e-05,1.1044239257122431e-05,7.291977486242521e-05,11720,6.682363,-9.838268,-10.299068
0.6867713007731392,2.4062944063016847,0.3885751417235058,-0.0034588859202938,0.0015550116992552,-0.0102428993554484,-2.339197399997748e-05,9.611451908716924e-06,6.436676593469154e-05,11721,6.576246,-10.789694,-11.427653
0.6878386592493713,2.312652500607467,0.3108262542778058,-0.0044733250620628,0.0018296102918365,-0.0090355790357781,-2.03775179353804e-05,7.76572988104776e-06,5.316974590495201e-05,11722,6.238955,-11.629671,-12.574223
0.6569306651346252,2.108390430166284,0.2347303902278472,-0.0052188637585258,0.0020652303154767,-0.0079055857066773,-1.643286257955954e-05,5.4331748132031125e-06,3.8913002020557615e-05,11723,5.640491,-12.345819,-13.412789
0.6646952338204781,1.9280577100182292,0.1858165852941279,-0.0056901822592662,0.0022573925822432,-0.0068456186857473,-1.1634152569762414e-05,2.662139644117406e-06,2.1884840976487565e-05,11724,4.873423,-12.841121,-13.916042
0.8063880989244234,1.7949295224831894,0.145345630976795,-0.0059255431340144,0.0024096582191694,-0.0057990391774182,-6.4405519048581e-06,-1.956350509855776e-07,4.12394795163605e-06,11725,3.949193,-12.997414,-14.374942
1.1460818665221535,1.5861117613515343,0.0798454530082027,-0.0059181742967586,0.0025090675806975,-0.0047544278478312,-1.277078595640948e-06,-2.8080114231959743e-06,-1.2442283396840948e-05,11726,2.851417,-12.94124,-14.688276
1.4512846864186404,1.2718837903925784,0.0106399994961324,-0.0056079993762818,0.0025221354498928,-0.0037515297509893,3.510863715257223e-06,-5.092462345703953e-06,-2.7139055173918703e-05,11727,1.736979,-12.687515,-15.030155
1.6553729182854304,0.8286361447526918,0.0126519871537084,-0.0049579874118438,0.0024127415850413,-0.0028007526743065,7.74196277024737e-06,-7.269588411136266e-06,-4.087647304553268e-05,11728,0.90554,-12.423469,-15.602256
1.8749295465635192,0.2610990467349361,0.0858041870497016,-0.0039305786689195,0.0021326559972396,-0.0019058407822498,1.1506476546318274e-05,-9.578949733196742e-06,-5.4873010867896455e-05,11729,0.431637,-12.560325,-16.153129
2.015853835727303,-0.2097868152286281,0.098175568906553,-0.0025739808482346,0.0016501385044699,-0.001035005207938,1.4757566249350677e-05,-1.1840350206850415e-05,-6.823037573778346e-05,11730,0.108427,-13.583834,-16.126151
1.9081740635070337,-0.3730474461396362,0.0440158091002996,-0.0010476972939702,0.0009526992088671,-0.0001036835365643,1.6586676856227577e-05,-1.3263789168123704e-05,-7.64624281925476e-05,11731,0.017855,-14.553762,-16.545871
1.564362672269306,-0.4018758257533272,0.0266919569003644,0.0004161245439409,2.6019310116702672e-05,0.0010061197709034,1.5513073091127994e-05,-1.2819554314888716e-05,-7.349562785873272e-05,11732,-0.441592,-14.788943,-16.493094
1.10280317132149,-0.6581078330636184,-0.1169603009008348,0.0014589217146524,-0.0011370240772789,0.0024700062549802,1.1206427880949789e-05,-1.024856775764436e-05,-5.783451483563429e-05,11733,-0.11476,-13.997203,-16.410729
0.6949225620194346,-1.1519281235079033,-0.4976643073006346,0.0019327853529464,-0.0024967228975012,0.0043204848878003,5.237930952614447e-06,-6.56155017475232e-06,-3.553105497503269e-05,11734,1.192782,-14.178256,-16.571626
0.587604638963673,-1.5535453607947427,-0.857756873836657,0.0019210042790703,-0.0039577445911376,0.006427657517197,-3.0581020966962695e-08,-3.378615353363068e-06,-1.6172775196092224e-05,11735,3.535656,-14.707606,-16.653669
0.5386891403439851,-1.6677936882362872,-1.1027504560416446,0.0015410457857295,-0.005368210436429,0.0086010756571018,-2.6335942653396013e-06,-2.010307107895104e-06,-7.5696813086216765e-06,11736,4.177734,-14.901445,-15.829513
-0.0401080681757067,-1.6031757432143277,-1.369135107965373,0.0010586059085584,-0.0064908355740328,0.0105089433636145,-1.8322920250280777e-06,-2.7789481125334027e-06,-1.1853751954766073e-05,11737,1.904326,-13.657543,-11.973459
-0.8547233051921068,-1.5216492359031968,-1.561828395883523,0.0006095661786732,-0.0072152350379529,0.01201064375142,1.4480998467669469e-06,-4.860650048169734e-06,-2.4371767458185186e-05,11738,-0.358142,-11.187601,-9.077205
-1.1140970743873333,-1.4219338775782857,-1.5474996118075637,0.0001845515073177,-0.0075655787244991,0.0131763041190998,5.238910932185369e-06,-6.9451968959443616e-06,-3.7320790901167503e-05,11739,-1.13704,-9.335669,-7.444247
-0.8794003603965752,-1.2654410983956716,-1.4591243874284257,-0.0001768064040098,-0.0075774053170875,0.014064379114291,7.749072970341774e-06,-8.052649467218944e-06,-4.4604333053267984e-05,11740,-1.258548,-8.254212,-6.571681
-0.6308459754248252,-1.1330507846876268,-1.3916354711309582,-0.0004591801424283,-0.0073645434804594,0.0148228852089168,8.484080535971128e-06,-8.035689070873473e-06,-4.5115354871939e-05,11741,-1.664819,-7.244829,-5.611658
-0.4072556939241573,-1.0839184794585384,-1.2997023600768292,-0.0006461220541273,-0.0069894254127738,0.0155005054200731,8.446127723193333e-06,-7.560624876040624e-06,-4.281866445069914e-05,11742,-2.162071,-6.023626,-4.501562
-0.3127554893906434,-1.0098130342045375,-1.2173219198963807,-0.0007065678932202,-0.0064565487362709,0.0160220321093462,8.786989019312194e-06,-7.273741903847337e-06,-4.1710123467303024e-05,11743,-2.593099,-4.50699,-3.112033
-0.534209667731379,-0.7844059141330832,-1.1492299667518175,-0.0006690187188923,-0.0058369678740663,0.0163588821894653,9.615982521108411e-06,-7.179810763751517e-06,-4.189945111075627e-05,11744,-2.998518,-2.913922,-1.794743
-0.7295539642735389,-0.5202169901785102,-1.042374139373251,-0.0006224344041788,-0.0052441894136184,0.0164749849455021,1.0430031923985526e-05,-7.000671484357994e-06,-4.166568253997213e-05,11745,-3.282893,-1.361913,-0.591242
-0.6742870096948705,-0.437928470594275,-0.910600655040556,-0.0005861083181894,-0.0047301901597028,0.0163444397970057,1.1007277419322098e-05,-6.66107641265598e-06,-4.0483302104656814e-05,11746,-3.359579,-0.020014,0.206905
-0.5824954215984179,-0.5099550860234103,-0.7823658595906684,-0.0005173234786481,-0.0042951782562533,0.0159705107193549,1.1539362565836872e-05,-6.311985737294563e-06,-3.922767678853064e-05,11747,-3.467158,1.154709,0.673074
-0.4867907529320876,-0.5561177806614614,-0.6779689828264807,-0.0003784656844119,-0.0039209642364821,0.015337075126282,1.2121430887305548e-05,-6.030798303750579e-06,-3.834023588304583e-05,11748,-3.770752,2.299119,1.141742
-0.3339735217498737,-0.5068704852577883,-0.5992223802875529,-0.0001047578227998,-0.0035413639300073,0.0144179030258188,1.2606468878985056e-05,-5.707536115944768e-06,-3.717723555142858e-05,11749,-3.926849,3.542403,1.679884
-0.1746186055288393,-0.412064194713748,-0.5392227988982076,0.0003167278800294,-0.0031323842664117,0.0131958062615108,1.2944030558923842e-05,-5.218586116890531e-06,-3.5108893274368784e-05,11750,-3.942082,4.842112,2.252467
-0.0952342233493647,-0.3809320408610788,-0.4976959506368417,0.0008355162682646,-0.0027135178895554,0.0116566437161288,1.3093359222589529e-05,-4.406078798890584e-06,-3.134860772285146e-05,11751,-3.943158,6.139915,2.63762
-0.1340104132327536,-0.4366605073392118,-0.4164635026704994,0.0013940459573095,-0.0022783102529323,0.0097873193249068,1.2898485565620434e-05,-3.1373649769983904e-06,-2.513794859092797e-05,11752,-4.062918,7.413113,2.794223
0.0089077559051465,-0.4949828688753805,-0.241254925500586,0.0018982139351143,-0.0018143720355985,0.0075785864710911,1.2397871269585387e-05,-1.581636051453902e-06,-1.7314051772277607e-05,11753,-4.185896,8.63798,2.975689
0.5505326325057311,-0.568690188668241,-0.0465056225759614,0.0023042690320517,-0.0013191954114717,0.0050354152929074,1.1933663997343808e-05,-1.7126623344617055e-07,-1.020765321234234e-05,11754,-4.018791,9.847907,3.242539
1.0818063926762211,-0.7079944439122234,0.0538514562554639,0.0026274692007813,-0.0007935710647859,0.0021806366146294,1.1650043444117351e-05,8.374783940097095e-07,-5.153968794153996e-06,11755,-3.757943,10.866147,3.340877
1.2003705283363657,-0.7947006764286444,0.0832954171849231,0.0028777895518389,-0.000247916479515,-0.000944243879625,1.0814895039918948e-05,1.7884752609637204e-06,5.8133734280590785e-08,11756,-3.691795,11.444832,3.159264
1.0404134738069852,-0.7404006764822635,0.1584785946098896,0.0030875236639351,0.0002939122706644,-0.0042698921834619,8.334493477606728e-06,3.265622762979801e-06,9.071116066303814e-06,11757,-3.308755,11.463094,3.349343
0.941845991248673,-0.7389611344105436,0.3063673481016578,0.0032664164992197,0.0008207651474067,-0.0076996678895992,4.258889921278925e-06,5.222233370849314e-06,2.162592180585549e-05,11758,-2.560366,10.823861,3.720172
0.9641317423046228,-0.9805239513509764,0.4514759680757491,0.0033949833989218,0.0013329768611155,-0.0110981418372906,-7.967401171680117e-08,6.965887455823084e-06,3.3371426085311554e-05,11759,-1.436614,9.513048,3.953117
0.620536422044081,-1.3322532941913812,0.571371673958904,0.003468568248402,0.0018262128788174,-0.0142679827800196,-3.5336382025032767e-06,7.955019593629288e-06,4.081446518018695e-05,11760,-0.001185,7.576231,3.492511
-0.4373157892704634,-1.4690495090447095,0.71692944323925,0.0034849686134639,0.0022971911798689,-0.016930064959984,-5.9440538656820456e-06,8.191926587010803e-06,4.383523408754304e-05,11761,0.954674,5.177016,2.396526
-1.535671235116283,-1.2055380680198238,0.8840826341715274,0.0034384349788728,0.0027417194811717,-0.0189356130627871,-7.469757250641181e-06,7.856218590533724e-06,4.341851175553005e-05,11762,1.072874,2.777698,1.257566
-1.8630538864374504,-0.7132354601993188,1.032210918844242,0.0033242720983101,0.0031530689949062,-0.0202731729122158,-8.307371482529525e-06,7.155617949390339e-06,4.071856855479465e-05,11763,0.439451,0.520741,0.962361
-1.6712963843631548,-0.2799559100680793,1.148774655212632,0.0031325220244665,0.0035267907201844,-0.0209533976992584,-9.40258149440763e-06,6.681043953785438e-06,3.9308827820377965e-05,11764,0.919869,-1.582446,0.278554
-1.5076667793435166,-0.059216943992282,1.1965045279639546,0.002847148020461,0.0038599714092874,-0.0210782181688188,-1.1898100081800417e-05,7.029268507461817e-06,4.29452331555202e-05,11765,2.323022,-3.60192,-0.447704
-1.4202676377389205,-0.0320938281349108,1.148834472330815,0.0024571290844577,0.0041477330080365,-0.0207082551195572,-1.5602203784159158e-05,8.036509162348757e-06,5.069551295198777e-05,11766,3.456273,-5.437889,-0.853925
-1.3436876198928172,0.1382392678496559,1.0644141069764468,0.0019553639114866,0.0043837293951888,-0.0198620093099286,-1.920764326260968e-05,9.039638985149546e-06,5.835576561503428e-05,11767,4.396734,-7.264684,-1.117865
-1.1085676648192804,0.7216193838906433,0.9940925610336914,0.0013323767519549,0.0045612158658199,-0.0186501634477247,-2.1697857444653148e-05,9.578259412196284e-06,6.291609381525411e-05,11768,4.937666,-8.97579,-1.650196
-0.5873595144589822,1.4380115906053048,0.928443438543349,0.0005783716243024,0.0046721968781466,-0.0172594137687106,-2.2708326782068185e-05,9.513220458576506e-06,6.341556643086178e-05,11769,5.273619,-10.380927,-2.528845
-0.1107929437436854,1.912404787116335,0.8630667044784361,-0.0002922630991942,0.0047101663646989,-0.0157784084964537,-2.2086221137584916e-05,8.8188091705767e-06,5.960758402837663e-05,11770,5.453621,-11.513281,-3.487135
0.0657515429369007,2.129676746632836,0.7811477336525495,-0.0012367480627465,0.0046702437830061,-0.0142081084016859,-2.000726285447782e-05,7.611749018841239e-06,5.2190716509717375e-05,11771,5.34282,-12.37834,-4.669885
0.1374842137441183,2.1606786732619137,0.6939692135191684,-0.0021889067609517,0.0045472520586434,-0.0125382245432474,-1.7221390676636454e-05,6.250189679549646e-06,4.346914409878693e-05,11772,5.060162,-13.057625,-5.975868
0.2102191796013817,2.021802998446381,0.6677981416979688,-0.003044631285813,0.0043364865180744,-0.0106995410442633,-1.4197562589277854e-05,4.8941190517615614e-06,3.458202155451683e-05,11773,4.580077,-13.60093,-7.093037
0.2276729722403296,1.8400950263303308,0.6473061236526809,-0.0037235652455715,0.0040325127313757,-0.0087075150285302,-1.0458332435527237e-05,3.151789875784602e-06,2.329320812220754e-05,11774,4.117474,-13.893038,-8.088309
0.2551090561089169,1.729017372542491,0.5029561764140364,-0.0041664493343242,0.0036289151796327,-0.0066742112710322,-5.823776765455918e-06,8.077131122166984e-07,8.434999236434018e-06,11775,3.531878,-13.922056,-8.797175
0.2212499400954641,1.634666894313933,0.2996593919055427,-0.0042872572610614,0.0031194103017926,-0.0047069672105688,-1.2273949166318968e-06,-1.6915368988476033e-06,-7.13399703711669e-06,11776,2.685982,-13.716748,-9.327958
0.1824095819284113,1.4033185114572886,0.1942328707124805,-0.0039832205411772,0.0024974191164867,-0.002953578686191,2.7754610408606486e-06,-4.085857567957326e-06,-2.173702524530168e-05,11777,1.746714,-13.406916,-9.570799
0.5997389021367625,0.9982034560600695,0.1714694863390986,-0.0032367221449331,0.0017630209757577,-0.0014642749654405,6.692708882508764e-06,-6.61490769410944e-06,-3.691105508471133e-05,11778,1.030345,-13.404227,-9.675502
1.3569095873406232,0.6629888807672517,0.1171672407481951,-0.0021241785164255,0.000924365618398,-0.0001695458929811,1.04320913986472e-05,-9.013341670799488e-06,-5.1317987931108445e-05,11779,0.546531,-14.182581,-9.295531
1.7408451307866275,0.5825714439154621,-0.0074159240281257,-0.0007876077142971,-4.539477175901675e-06,0.0010299678213816,1.2321477437062676e-05,-1.0054966721485664e-05,-5.779272469652314e-05,11780,0.702358,-14.986227,-9.758713
1.6437251390746068,0.5311567543828831,-0.1038750315598183,0.0005164643190411,-0.0009997930622887,0.0023202660208499,1.0690122500790911e-05,-8.700944951708857e-06,-5.0049994452929165e-05,11781,0.184197,-15.177704,-9.729854
1.3099533148949016,0.0598354823953755,-0.0590299983441778,0.001627128169261,-0.0020285093435883,0.0037739547889376,6.0613426827912e-06,-5.563736669708415e-06,-3.140895208263467e-05,11782,0.415845,-14.209808,-10.034074
0.6795654868004617,-0.944864398764582,-0.0369761510487592,0.0024771132851042,-0.0030451513930246,0.0053357901577066,7.562480160271289e-07,-2.431622487097894e-06,-1.2239089538090186e-05,11783,2.189491,-14.186209,-9.908075
0.0072134865880273,-1.888264485717441,-0.3378825155413012,0.0029393664327131,-0.0039825934578208,0.0069642505173863,-3.3330238194882605e-06,-5.153371917383594e-07,1.676061241096468e-07,11784,4.177409,-14.617986,-9.02027
-0.2603202440137213,-2.18135490896157,-0.8611380932904893,0.0028718907104168,-0.0047455465632272,0.0085709164452229,-5.347024670101252e-06,-8.660408388608268e-08,3.823857668330832e-06,11785,5.0769,-14.938239,-7.750377
-0.340386496649423,-2.0123744774243955,-1.191057549680686,0.0023287051957503,-0.0052838377076167,0.0101044820056125,-4.946389149731183e-06,-1.0112562098303712e-06,-9.026704526458972e-07,11786,2.772236,-13.90757,-4.596511
-0.5159443722547379,-1.7147212660990625,-1.2127816009593355,0.0015807091415636,-0.005594746797894,0.0115632724177617,-2.477252060211545e-06,-2.767359934369051e-06,-1.1250381359829208e-05,11787,0.234874,-11.610436,-2.0553
-0.6188238756621688,-1.2378763247185636,-1.1341243792915685,0.0008097393932687,-0.0056835013973183,0.0129038902053422,7.765203024942871e-07,-4.441676086193957e-06,-2.1836358940488757e-05,11788,-0.019595,-9.815919,-0.882198
-0.5781939219109661,-0.6822020667626482,-1.0674099819884857,0.0001671504464037,-0.0055872090314976,0.0140610245474235,3.0916455469412027e-06,-5.168736705812124e-06,-2.715347723033463e-05,11789,0.014368,-8.565253,-0.284152
-0.4192941298271674,-0.3678019783172286,-1.0031130503434784,-0.0002366042196849,-0.0053290964090397,0.0149987917704076,3.946511211858782e-06,-4.979715587770672e-06,-2.6932938781982147e-05,11790,-0.337011,-7.320586,0.526948
-0.158165622428491,-0.3001298899548834,-0.94188295097593,-0.0003933004946307,-0.0049184152860679,0.0157020893903203,4.653521390526881e-06,-4.837169214585804e-06,-2.680769892794865e-05,11791,-0.7643,-5.981109,1.386639
0.0255299826825904,-0.2591925611341927,-0.8799251248955644,-0.0003819889959528,-0.004397046605679,0.0161660649042818,6.166677779858778e-06,-5.263954129170306e-06,-3.0031472416277915e-05,11792,-1.228077,-4.470358,2.620137
0.0243347213030383,-0.1714757865660279,-0.8260292264109588,-0.0004220382963963,-0.003834200440747,0.0164091749515705,7.599486217004903e-06,-5.673886157730128e-06,-3.311347666847942e-05,11793,-1.829639,-2.87576,3.938908
-0.05880722989524,-0.102865278010921,-0.7768690127969544,-0.0005707869671076,-0.0032638984720001,0.0164277376449038,7.774120113168723e-06,-5.318595552162099e-06,-3.1562193298278975e-05,11794,-2.157342,-1.325848,4.912922
-0.1528624167036467,-0.1089541453172628,-0.6640799805181964,-0.0007210038807379,-0.0026885298701577,0.0161956560802772,6.96586208032316e-06,-4.294707616694731e-06,-2.6056943829959367e-05,11795,-2.155493,-0.010582,5.551672
-0.2194347334340927,-0.1314487909591138,-0.5044323581686491,-0.0008047396846015,-0.0021066899098896,0.015697144483501,6.486109611140823e-06,-3.389996768243982e-06,-2.137735900667052e-05,11796,-2.15177,1.10887,6.040015
-0.1650903112084467,-0.1202237188124017,-0.4123371481030196,-0.0007149377853691,-0.0014960377312793,0.0149161852313357,7.032564876004153e-06,-3.064008463082153e-06,-2.0255997981338365e-05,11797,-2.280456,2.168821,6.42622
-0.0369798101794413,-0.1375287510461349,-0.3205207954862631,-0.0004148477144232,-0.0008645959450248,0.0138361578173373,8.23974877148129e-06,-3.041260517906606e-06,-2.1092539205265087e-05,11798,-2.584835,3.28938,6.564433
0.0443079337068617,-0.2128090401785945,-0.1537712740523685,3.426024733508984e-05,-0.0002551218120214,0.0124431150280467,9.618889212621974e-06,-2.9113129796474205e-06,-2.1548187830645424e-05,11799,-2.851869,4.481868,6.526959
0.0540947831611496,-0.3012152967982604,-0.1058148855942762,0.0005761582051189,0.0002911193284066,0.0107185706932595,1.0952687607270087e-05,-2.526528752960901e-06,-2.0747194917585795e-05,11800,-3.110706,5.695123,6.34777
0.0126148924884263,-0.332069208542354,-0.1805666866608258,0.0011169460689705,0.0007181142928364,0.0086398018414496,1.210512527437271e-05,-1.8729774139851976e-06,-1.851391046458074e-05,11801,-3.264745,6.945735,6.212234
0.067863092014454,-0.3016088884627216,-0.0840586285443189,0.0016118314225648,0.001006191532259,0.0062030694583021,1.2996361023330631e-05,-1.0089664581799514e-06,-1.5068122474023336e-05,11802,-3.210553,8.25985,5.903134
0.3361815566596174,-0.3373412789013547,0.1479075663658874,0.0020786041388078,0.001180186929479,0.003425689252348,1.3384779024197494e-05,-6.225029694841508e-08,-1.0835372552727504e-05,11803,-3.284624,9.542781,5.380891
0.6532080073145604,-0.4544372677204245,0.2511138723889816,0.0025216407046487,0.0012766389949897,0.0003384058799857,1.2759587037104183e-05,9.317215236037144e-07,-5.58335261634378e-06,11804,-3.373969,10.421727,4.895796
0.7712196706975905,-0.5159888493912117,0.2539339200808194,0.0029598681520646,0.0013649474942217,-0.0030038457401734,1.0540466675808295e-05,2.216621758795773e-06,2.3067719633356094e-06,11805,-2.981423,10.656659,5.362369
0.6609462836806156,-0.5778605441432768,0.2940757957830531,0.0033830870740386,0.0014773015909373,-0.0064997923327172,6.336565574053768e-06,4.138244445936987e-06,1.479363945670772e-05,11806,-2.050977,10.140141,6.395462
0.6164639382878312,-0.7902864660399405,0.4029373591403962,0.0037409520497455,0.0016045147866835,-0.0099881110752739,6.91372232941721e-07,6.492996516859512e-06,3.048154598767656e-05,11807,-0.984422,8.896693,6.710047
0.6739575039094493,-1.0660241596496178,0.5735493231444578,0.0039830553359938,0.0017479984584433,-0.0132311746150431,-4.708887051210495e-06,8.422947572004657e-06,4.394825785707119e-05,11808,0.346932,6.869067,6.304112
0.2305422653721255,-1.15524189942956,0.6945066806593521,0.0040413002440577,0.0019003212127101,-0.0158842025756347,-8.482194089922165e-06,9.333384911593987e-06,5.126547718977409e-05,11809,1.679751,4.198234,5.029008
-0.7924273076175564,-0.87146266104867,0.6827507373906825,0.0038799890655385,0.002061942885935,-0.0177711515859176,-1.064753471292094e-05,9.34777221324512e-06,5.303786358973554e-05,11810,2.317052,1.540404,3.119485
-1.468645794107036,-0.3550003662839497,0.6493548427176786,0.0035031380339066,0.0022464003871378,-0.018894817043152,-1.2004952424353616e-05,8.830943466111775e-06,5.163989578522105e-05,11811,2.13517,-0.876046,2.274217
-1.3937590582148045,-0.0039757845755768,0.6596249926633173,0.0029184014847533,0.0024572130221766,-0.0192832805026244,-1.3335516602256468e-05,8.20236132049056e-06,4.969424850644935e-05,11812,2.262268,-2.920788,1.738464
-1.1700846968981595,0.0821762394788499,0.6823871346004656,0.0021556847527685,0.0026926550372908,-0.0190794907344819,-1.5238309524710555e-05,7.995008495867594e-06,5.021914493462543e-05,11813,3.521125,-4.808633,1.140265
-1.1162985197948845,0.1672821616882763,0.7771518683487723,0.001244744038178,0.0029444072192183,-0.0183721611040159,-1.7845817231952408e-05,8.454056223996954e-06,5.448543624407751e-05,11814,4.49821,-6.578119,0.740577
-1.0499579465048032,0.485285808526087,0.9273983751528252,0.0002159877066655,0.003192498076872,-0.0171933413251974,-2.0279394882631592e-05,9.09404517579729e-06,5.947631609953037e-05,11815,5.211462,-8.248511,0.280912
-0.914629666630149,1.1271991720822625,0.974142458991841,-0.0008673542554967,0.0034064242159642,-0.0156898545671304,-2.1073256950707662e-05,9.05333885036674e-06,5.9919450618581545e-05,11816,5.603813,-9.805469,-0.498127
-0.6739987708782653,1.8504449419462068,0.8998226189861813,-0.0019074561523422,0.0035398834051974,-0.0141013570145499,-1.9788647678960107e-05,8.10407939047962e-06,5.4379671527913126e-05,11817,5.873697,-11.097921,-1.801111
-0.3404833485303762,2.1383542157648807,0.8241382771256552,-0.0028468657805844,0.0035699290154782,-0.0125424571596091,-1.7286491062170494e-05,6.743557645335392e-06,4.590400390708768e-05,11818,5.761716,-12.019285,-3.303081
-0.0425799490689069,1.9586490705952837,0.7706401908784648,-0.003665999811566,0.0034985987422174,-0.011015104824406,-1.4197412043990982e-05,5.235660747789985e-06,3.62486194195099e-05,11819,5.322716,-12.571277,-4.731501
0.1106039151474338,1.7617892801542805,0.7135272830452581,-0.0043430753082622,0.0033297739991523,-0.0095015792153037,-1.0551181467926256e-05,3.49791366956025e-06,2.5054052584385543e-05,11820,4.834997,-12.855322,-6.066334
0.1225094867919709,1.6577716483439175,0.6877119976380849,-0.0048738589959024,0.003081592767341,-0.0079032180546661,-6.496749117082582e-06,1.5926828308266027e-06,1.2742503525731236e-05,11821,4.353099,-12.958603,-7.159157
0.2855128643045987,1.5574140830472334,0.6693672371154988,-0.0052194100169151,0.002763684154573,-0.0062173978178221,-2.247879337520949e-06,-4.2935889407458473e-07,-2.798935336830707e-07,11822,3.760955,-12.937891,-7.999944
0.6096762554460537,1.5040827473950875,0.5871183908583756,-0.00529880671425,0.0023760862983596,-0.0045486626435774,2.123268308649802e-06,-2.6998448925643566e-06,-1.4586317245704091e-05,11823,2.843018,-12.839686,-8.508963
0.7652668177138301,1.2796399378158667,0.5107192683895347,-0.0050255369501885,0.0019319039005062,-0.0029772114181185,6.5398792503022025e-06,-5.321023987908973e-06,-3.0597840810073406e-05,11824,1.599248,-12.701568,-8.700968
0.9594359806052714,0.7504820497079712,0.5134699643335083,-0.0042879553633787,0.0014534370173617,-0.0016085190429456,1.0823228148730524e-05,-8.223140529911456e-06,-4.783935288829487e-05,11825,0.640281,-12.636868,-8.59276
1.417443760249494,0.2834645194651577,0.4970587981093738,-0.0030954890154098,0.0009473732783188,-0.0004679836990793,1.4670339116274765e-05,-1.1129632908581463e-05,-6.475817469528797e-05,11826,-0.113162,-13.11045,-8.249133
1.766760337462583,0.1069723937470352,0.4622584284540006,-0.0016018990150023,0.0004059839579633,0.0005240677406199,1.7387121294937637e-05,-1.3367579599746449e-05,-7.759444143491598e-05,11827,-0.470426,-14.07041,-7.989077
1.7013936382816863,0.1382351891523081,0.4549870115830374,-4.029774213028204e-05,-0.0001841207214917,0.0014765477374016,1.7558984858715377e-05,-1.3809980591654748e-05,-7.984290957992935e-05,11828,-0.680485,-14.748158,-7.686099
1.212315395586173,0.0664785239305173,0.1927450555964528,0.0012054037824045,-0.0008498778998212,0.0025762011608022,1.4104027364403977e-05,-1.1790562603933197e-05,-6.746233024821274e-05,11829,-1.128942,-14.381344,-7.316878
0.457742544783515,-0.664560541589126,-0.5178416058672372,0.001948529687623,-0.0015836410554083,0.0038990502730736,8.025172854074573e-06,-8.168885963096376e-06,-4.535013083216719e-05,11830,-0.014082,-13.516381,-7.861106
-0.160166701282094,-1.8477205184034444,-1.2990390656375437,0.0022148262455806,-0.0023382188939219,0.0053959102662125,1.8180259473456464e-06,-4.677834399669876e-06,-2.3758188272269677e-05,11831,2.572214,-14.007417,-8.782451
-0.4398590549442653,-2.470320719819338,-1.7123375182783154,0.0020166511361818,-0.003051940325554,0.0070206949407858,-2.6090393406161816e-06,-2.480803181341895e-06,-9.756797920782042e-06,11832,5.110004,-14.883347,-8.457548
-0.6292618915192993,-2.3222660997053657,-1.7597521154351328,0.001456278449976,-0.0036291925721935,0.0086704819014728,-4.326431385960428e-06,-2.0071900963776248e-06,-6.132453998915588e-06,11833,3.659935,-15.041614,-5.654525
-0.8148271880983924,-1.9090410357501133,-1.6368280931075194,0.0007002410131867,-0.0040228520116147,0.0102815982327863,-3.092435571794367e-06,-3.1937922033400397e-06,-1.2769797469971277e-05,11834,0.22663,-13.047341,-2.870376
-0.8993801733474366,-1.2587572151270123,-1.5150530519244474,-1.2055135689131335e-05,-0.0042396266642142,0.0118390332502932,-5.2963794764493416e-08,-5.05363345622239e-06,-2.405099542203947e-05,11835,-0.573413,-10.985548,-1.30429
-0.9460113230867636,-0.492478664789618,-1.4483000611137553,-0.0005782208191355,-0.0042859694564349,0.0132767145951062,2.6493231271852096e-06,-6.163730737247351e-06,-3.149140930531359e-05,11836,-0.492433,-9.492288,-0.893139
-0.8494194071834399,-0.1650753249917096,-1.265253811261871,-0.0010566771582325,-0.0041940357381238,0.0144971096952812,3.980677492848805e-06,-6.192345937351509e-06,-3.268505564416443e-05,11837,-0.587858,-8.13963,-0.116302
-0.4834632296467057,-0.219991985982641,-0.938933732503651,-0.0014067594115832,-0.0039761015955141,0.0154420637532105,4.714407435966471e-06,-5.983514790129262e-06,-3.227011047059735e-05,11838,-1.034022,-6.668011,0.751109
-0.1066379381401627,-0.207536731713661,-0.7130327231784758,-0.0015427217845117,-0.00362029522801,0.0160833785787506,5.774200301299166e-06,-6.114112677230691e-06,-3.3736520735638695e-05,11839,-1.618526,-5.022262,2.108154
-0.0367301242115659,-0.1012052460014911,-0.6621098024704724,-0.001522503400629,-0.0031352678634323,0.0164013637945828,6.963855429598187e-06,-6.257581943035266e-06,-3.5368884600617005e-05,11840,-2.251067,-3.174924,3.663583
-0.2472923181514751,-0.0229275155495095,-0.6455313202555109,-0.001533918078507,-0.0025401096955816,0.0164027242692918,7.546425259635645e-06,-5.871630735923148e-06,-3.398623474187996e-05,11841,-2.641179,-1.335921,4.965322
-0.4145465704242348,0.0019691401941097,-0.5841751106801641,-0.0016181502317824,-0.0018462084137034,0.0160808315537007,7.194668401935334e-06,-4.793699869706649e-06,-2.855329365949426e-05,11842,-2.581415,0.239265,5.695534
-0.3089253777327956,-0.00666627931387,-0.4906241152832357,-0.0016903700233903,-0.0010627006287148,0.0154168318261019,6.186507218779935e-06,-3.203802572684367e-06,-2.0160056389306243e-05,11843,-2.494978,1.455268,5.830951
0.0324805616613521,-0.0114361945151286,-0.3824734701576611,-0.0016854741933188,-0.0001996851330163,0.0144159928836666,5.325464024544503e-06,-1.6043187326876963e-06,-1.1846963152341646e-05,11844,-2.584638,2.534161,5.678962
0.4780565613660197,0.0078727263896531,-0.2978512804694824,-0.0014930599459241,0.0007342034151936,0.0131027481315161,5.42655641429591e-06,-5.468635310894642e-07,-6.886558512973349e-06,11845,-2.765263,3.68793,5.545549
0.8582359343847576,0.0216096253843825,-0.2575800823047194,-0.0010710687583789,0.0017082730335959,0.0114767464216827,6.413681749642311e-06,7.944954857820695e-08,-4.679606708124911e-06,11846,-2.986281,5.01929,5.453971
1.0792850113282304,-0.1245947151549433,-0.2415987400457047,-0.000465095904186,0.0026654888104466,0.0095157292087362,7.625695253821165e-06,8.361021049973745e-07,-2.0163715537518823e-06,11847,-3.319086,6.425486,5.294503
1.221655139130447,-0.4250327445334489,-0.2352431195328872,0.0002873076264743,0.0035301487902996,0.0071944367566395,8.84768760888093e-06,1.8248270792258403e-06,1.761242895334177e-06,11848,-3.485253,7.868924,4.837678
1.3054800216680225,-0.5978569571860327,-0.174851686595102,0.0011174765873543,0.0041947943443224,0.0044726417744597,1.000007632181309e-05,2.795764218406742e-06,5.518022869365327e-06,11849,-3.473331,9.207909,4.186483
1.294479849897584,-0.579383501919849,-0.0068396544291233,0.0019741161622044,0.004611598213332,0.0013616976008842,1.0379685060009198e-05,3.803574663908148e-06,1.0055059938098163e-05,11850,-3.395546,10.209233,3.25814
1.2121850100549434,-0.5400555823681359,0.2004820819421728,0.0028307422699462,0.0047986467716976,-0.0020663801757318,9.043215899736289e-06,5.185579282574966e-06,1.771465779539033e-05,11851,-3.369411,10.562829,2.823586
1.068739764639322,-0.5355947251642814,0.3857734645920815,0.0036264794034093,0.0047893694056732,-0.0057119492732824,5.67022515545999e-06,7.088595824724535e-06,2.944996309350637e-05,11852,-2.839563,10.200918,2.941871
1.0214783616499714,-0.613577344095591,0.5941698513420358,0.0042752313655339,0.004665219418247,-0.009418008626995,9.125403550197868e-07,9.205337284896589e-06,4.3285741145374784e-05,11853,-1.796051,9.130022,3.261054
0.9919950077500144,-0.7870140859878428,0.8106550389933207,0.0047227036006581,0.0044731049845772,-0.0130259342403791,-4.122611366765678e-06,1.10645436346574e-05,5.610513832935011e-05,11854,-0.299128,7.244641,3.445193
0.381424296720072,-0.8872531518597436,0.9160047324117429,0.0049411332059531,0.0042232792899048,-0.0163666259862105,-8.621123668572718e-06,1.2388936715006572e-05,6.594700959062466e-05,11855,1.089005,4.653753,2.694135
-0.7365783884194395,-0.8163664758662874,0.9289048312269852,0.0049076412483771,0.0039609286553394,-0.0191918347664144,-1.2088731930079588e-05,1.2989310282461614e-05,7.152495615925929e-05,11856,1.998877,1.803905,1.291205
-1.3911971093295428,-0.6104243020162816,0.988699814284404,0.0046192204575515,0.0037499584619899,-0.0211671524372812,-1.4373175310083354e-05,1.2817743030618547e-05,7.249765122608053e-05,11857,2.322101,-0.679471,0.492079
-1.3636788151600223,-0.2746489501388166,1.0792204367968423,0.0040645524890177,0.0036218430663881,-0.0221410698137933,-1.6234913363427646e-05,1.237659953140886e-05,7.18612156662781e-05,11858,2.54633,-2.943907,0.223054
-1.3166605157800464,0.0506786552781502,1.0834246992477197,0.0032245684563102,0.0035805225962042,-0.0221569135556025,-1.9024002080754744e-05,1.252428668553027e-05,7.477328293566829e-05,11859,3.908199,-4.828637,-0.260019
-1.3972418261456392,0.1749030775450662,1.0119632191155636,0.0021006508943535,0.0036146897898204,-0.0213301439285213,-2.2969948538885115e-05,1.346434026428601e-05,8.23920890873828e-05,11860,5.170021,-6.763932,-0.463478
-1.3626666536081684,0.3381966238094175,0.944263731869983,0.0007118035846164,0.003681773735566,-0.0199480156311959,-2.6472486804461176e-05,1.430382139780382e-05,8.91976646008114e-05,11861,5.983835,-8.606156,-0.387749
-1.2602318317073462,0.952933368604556,0.8900913567541486,-0.0008871964384365,0.0037529787401045,-0.0181739101886428,-2.792895897816177e-05,1.412691810408711e-05,8.953948207411804e-05,11862,6.573835,-10.384384,-0.739179
-1.120205633909147,1.859264086786943,0.8326340565031702,-0.0025918109013373,0.0038104083629241,-0.0160461214612828,-2.733065527497453e-05,1.299522678223042e-05,8.368220018970336e-05,11863,7.178358,-11.989247,-2.084718
-0.9321869314099054,2.4532584245639093,0.7716169804464318,-0.0042437233261181,0.0038072598754819,-0.0137209955194217,-2.5331614397213595e-05,1.1411733081247736e-05,7.453990773376794e-05,11864,7.289968,-13.234725,-3.643226
-0.7643285020628495,2.483947054195141,0.7078039557571159,-0.0056063903834419,0.0036723873978948,-0.0114161716390574,-2.2086380400280545e-05,9.549933728929656e-06,6.307648532459218e-05,11865,6.849574,-14.013429,-4.935438
-0.6629480106483172,2.2607385000821125,0.650656994405493,-0.0065442538573321,0.0033749899224204,-0.0092688869835743,-1.7687090438384834e-05,7.4213460816634066e-06,4.9424799272798574e-05,11866,6.269885,-14.311864,-6.166606
-0.5789752733157456,2.0892082227020525,0.5988159382783587,-0.0070265671757188,0.0029235215396629,-0.0073579622655032,-1.2608136953930805e-05,5.157385754759146e-06,3.458038490164994e-05,11867,5.638363,-14.156875,-7.220891
-0.269625685259088,1.980040992827494,0.5437989251008082,-0.0070189896843281,0.0023381781136218,-0.005735866059105,-7.115816987304326e-06,2.717469272691091e-06,1.856018506791713e-05,11868,4.794372,-13.702468,-7.969758
0.2497913409935697,1.8993302044054496,0.4893191259746657,-0.0065357798032069,0.0016717157461078,-0.0043919439151121,-1.0977204379892616e-06,-2.55207855898058e-07,-4.1491299166829613e-07,11869,3.67842,-13.184374,-8.484803
0.6784602047206245,1.7493091987104123,0.4299785428504856,-0.0056061976623037,0.0009615236722783,-0.0033072796632475,5.102985131478998e-06,-3.90647205093784e-06,-2.2760863895693133e-05,11870,2.240114,-12.642844,-8.597651
1.0638711190131267,1.2906249558415357,0.3933156325557747,-0.0042767815886359,0.0002307388232642,-0.0024417651766549,1.058652498739902e-05,-7.824503692100678e-06,-4.5806576943403935e-05,11871,1.063859,-12.655244,-8.053187
1.463475251851609,0.6589047603651782,0.3756591877874383,-0.0026842538986522,-0.0004667498585734,-0.0016609823802279,1.462572105855607e-05,-1.127279956303114e-05,-6.546504435396397e-05,11872,-0.063353,-13.693858,-6.798929
1.5973043385506955,0.3537257790118935,0.2540057919568747,-0.0010685745618086,-0.0010520862131405,-0.000723120250185,1.64666218596846e-05,-1.3312397993086913e-05,-7.664812932934524e-05,11873,-0.160302,-14.811662,-6.567275
1.471610677406325,0.2281079243241561,0.0139226816126603,0.0004031705437599,-0.001497456034184,0.0004724558914093,1.4950138539119024e-05,-1.2961911366971257e-05,-7.375253681069841e-05,11874,-0.414968,-15.286547,-5.959417
1.242365074153896,-0.369323330565092,-0.2065107289743885,0.0016218803545843,-0.0018264497366046,0.0018868972132073,9.836957866259995e-06,-1.0083563981457132e-05,-5.59460540988612e-05,11875,-0.113,-14.579563,-6.200769
0.7210139309769272,-1.260441976285643,-0.3828714360492793,0.0024232417495884,-0.0020844449219103,0.003476826843965,3.187121868577948e-06,-6.086116637152974e-06,-3.159220851206241e-05,11876,1.328617,-14.35759,-7.131516
0.0499895649441709,-1.7001175863836375,-0.6215694059383052,0.0026180131115217,-0.0023657121601202,0.0051229319740508,-1.9691527008293084e-06,-3.019204843420236e-06,-1.2866135993543194e-05,11877,3.898042,-14.893614,-7.208005
-0.33237301634078,-1.6429981804000198,-0.9880119873210844,0.0021733824685496,-0.0026929265171123,0.0067569955568528,-4.015526107352561e-06,-2.031502124973122e-06,-6.524283126153872e-06,11878,5.034521,-15.405599,-6.829934
-0.5460671085872091,-1.5163070700456278,-1.3673797355587074,0.0012283128531329,-0.0030101016479686,0.0083697182748647,-2.980087220930093e-06,-3.0594761406243937e-06,-1.2244443401749531e-05,11879,2.721329,-14.51639,-3.872587
-0.7855997416316025,-1.445979335224097,-1.536321611937744,5.30664095769154e-05,-0.00325954246582,0.0098862971816803,3.992267230947879e-07,-5.344953810808413e-06,-2.582384972603556e-05,11880,0.057211,-12.261249,-1.348742
-0.8849914898407298,-1.2631993119608809,-1.4572730190465686,-0.0008603674338068,-0.0033438158457965,0.0111905126175842,4.574489075914599e-06,-7.652756752107082e-06,-4.013876153127996e-05,11881,-0.054643,-10.518105,-0.019491
-0.806118106280826,-0.8096652597446808,-1.3295825596144475,-0.0013179808550499,-0.0032232920778191,0.012226052352186,7.524440853925064e-06,-8.780940248956063e-06,-4.785674802396693e-05,11882,-0.180489,-9.160735,0.514854
-0.6168863716627813,-0.2714638732646384,-1.2595708429013124,-0.0014411525366125,-0.0029275717939912,0.0129865150833785,8.669524666370233e-06,-8.641532286978863e-06,-4.810061053380463e-05,11883,-0.345168,-7.890458,1.229992
-0.3418598824000105,-0.030603906825474,-1.181061479108568,-0.0013447435961407,-0.0024813667106139,0.0134833679501888,9.308934139870074e-06,-8.21044206168767e-06,-4.6553219378801725e-05,11884,-0.519899,-6.577258,1.849738
-0.1465586615410511,-0.0749857494477452,-1.0977415806192958,-0.0012919878536849,-0.001936448959859,0.013774531363776,1.0534136502230054e-05,-8.154472510675996e-06,-4.726595596485433e-05,11885,-1.006235,-5.069697,2.941565
-0.1376856414671546,-0.1033572003787005,-1.0393587277651977,-0.0013760977721483,-0.0013297994726646,0.0138763474733745,1.2177058041566244e-05,-8.348210037262722e-06,-4.951127408729948e-05,11886,-1.786222,-3.425338,4.350979
-0.1841490988585623,-0.0616947410948961,-0.9839180638742584,-0.0014838071981056,-0.0006783467307839,0.0137621892864617,1.3728220059636486e-05,-8.49894935569137e-06,-5.148076659724724e-05,11887,-2.319128,-1.835205,5.345584
-0.1873246212588154,-0.0497712814869243,-0.897563220918802,-0.0015686439836488,-2.830378628393393e-05,0.0134297098161917,1.4806034400993634e-05,-8.346751245576619e-06,-5.1622116715508855e-05,11888,-2.374773,-0.46173,5.901873
-0.1109464933578698,-0.0545066970565515,-0.7306255126963694,-0.0015592902047748,0.0005522628167401,0.0128810007549693,1.5145395715746256e-05,-7.695439761701543e-06,-4.878972953103338e-05,11889,-2.308274,0.712131,6.32519
0.0559930596367771,-0.0630632267767213,-0.52831071181575,-0.0014202424290736,0.0010290934981236,0.0121094186715329,1.5056277972484114e-05,-6.767245395993374e-06,-4.429416116381106e-05,11890,-2.442035,1.8798,6.75419
0.2057527152611936,-0.1105457452253782,-0.3849357759285969,-0.0011834158571025,0.0013986501109562,0.01110584841073,1.515642716034906e-05,-5.931668479029948e-06,-4.038793730387982e-05,11891,-2.655992,3.119017,7.1178
0.2814960967566888,-0.1835457019076349,-0.3260776507218954,-0.0008518703794475,0.0016672910867958,0.0098509430544514,1.543092957584518e-05,-5.065136318685953e-06,-3.647401382029279e-05,11892,-2.784891,4.400936,7.345591
0.3218400895658936,-0.2421808033190421,-0.3223944890866447,-0.0004249581670835,0.0018680854637789,0.008311776439971,1.557481521711938e-05,-3.922727680956601e-06,-3.114895597338086e-05,11893,-3.014945,5.653667,7.492925
0.4037185870797587,-0.2928928472277817,-0.290674114185146,8.794263917486465e-05,0.002019183103535,0.0064652815106714,1.586617190411083e-05,-2.827485574467739e-06,-2.6167524768794264e-05,11894,-3.111396,6.837482,7.355045
0.6205185297218663,-0.3531684097242498,-0.2169690049954129,0.0006772082038456,0.0021244999429918,0.0042962853614609,1.65334618247264e-05,-2.217290475154581e-06,-2.378950498303133e-05,11895,-3.24927,7.911688,6.77923
0.8933598325857228,-0.3745374263558541,-0.1313585757357578,0.0013175293575838,0.0022107478533655,0.0017822200585197,1.684566237752093e-05,-1.890100201921374e-06,-2.2473154433389907e-05,11896,-3.483661,8.695516,6.150324
0.9924851074745834,-0.3460541803445693,0.0772198145764678,0.0019649869582595,0.002321361611073,-0.0011029174619069,1.5774951501599017e-05,-1.3317172193599888e-06,-1.895432180630238e-05,11897,-3.152683,8.952695,6.284456
0.8658788793577116,-0.3960228583149063,0.4162666925443726,0.0025933624008106,0.0024753555830251,-0.0042912665039127,1.306048710854288e-05,-4.165957977630645e-07,-1.2425433250467448e-05,11898,-2.292297,8.566159,7.363414
0.7979766360665761,-0.5819521479208913,0.6328060378996121,0.0031919095194875,0.0026697897170183,-0.0076043387220737,9.146626164064637e-06,6.8046490996138e-07,-4.0734795223374944e-06,11899,-1.363891,7.562684,7.758302
0.8329436322423114,-0.7640173353319225,0.6420564496385487,0.0037447768571692,0.0028956995136411,-0.0107766441796334,4.689798177708252e-06,1.809679678501636e-06,4.861762270293854e-06,11900,-0.145605,5.767404,7.925343
0.4078592981054669,-0.8052212950855149,0.6083918487418489,0.0042390481127407,0.0031260195284909,-0.0133993895339505,3.443003737338832e-07,2.815096910839773e-06,1.3118330850979865e-05,11901,1.272171,3.274721,7.300462
-0.5787030138191891,-0.6723100101159478,0.5888539516382674,0.0046405304871008,0.0033499399507663,-0.015286645270807,-3.5862318090692146e-06,3.645348393480565e-06,2.021529101078033e-05,11902,2.04734,0.67619,5.829933
-1.2803514864520844,-0.3877444353988827,0.599509733284357,0.004888008902076,0.0035738448494514,-0.0164928661378161,-7.277728696841871e-06,4.465340109140914e-06,2.7078300790328745e-05,11903,2.350306,-1.599361,4.708768
-1.2675673433150831,-0.0482637313132615,0.6859637599012632,0.0049061471447108,0.0037942638038222,-0.0170981188333985,-1.094867971880669e-05,5.436383556135934e-06,3.4645402221638894e-05,11904,2.574116,-3.496321,4.315352
-1.0663846831554673,0.1660418987959301,0.7615578773249735,0.0045925937106835,0.0040057173011409,-0.0173269217522693,-1.4789474415941157e-05,6.691119205107762e-06,4.369686167937008e-05,11905,3.724672,-5.22716,3.757347
-1.0238161073337375,0.2209332017229907,0.7889845417401682,0.0039026043484767,0.0042015968664641,-0.0172502578751986,-1.8954457125941147e-05,8.300177485165e-06,5.469309762628146e-05,11906,4.845235,-6.992195,3.360693
-0.9754182156276217,0.4159558027770275,0.8304316502533129,0.0028565075009778,0.0043706438534783,-0.0167627398497472,-2.285116142684392e-05,9.867667328936489e-06,6.528109055368444e-05,11907,5.732147,-8.651186,2.990401
-0.8260973739408393,0.9851851396366688,0.8628312234266702,0.0014935248644578,0.0045009866305957,-0.0158240389825154,-2.524443582776908e-05,1.068652956865424e-05,7.110944674297287e-05,11908,6.261366,-10.185365,2.46151
-0.6064283979273213,1.661752389508723,0.8832694748069796,-9.607597264012658e-05,0.004578631265691,-0.0143788556438204,-2.550956745826161e-05,1.050397976972697e-05,7.04697690589482e-05,11909,6.514473,-11.559611,1.375752
-0.4279258673190274,1.9991810757125157,0.9027623257771326,-0.001812014126467,0.0045784295946523,-0.0124617113380943,-2.4115391953087908e-05,9.719059799277188e-06,6.56302248933306e-05,11910,6.567157,-12.596059,-0.239531
-0.3456768953864155,1.9601260159729177,0.8639747732842745,-0.0035360049078934,0.0044619129169082,-0.0102377723664413,-2.1883326803135087e-05,8.8383333694264e-06,5.965549149221197e-05,11911,6.21196,-13.238307,-1.798363
-0.2697680281640549,1.8038057287416,0.7939469820015622,-0.0050688849286259,0.0041768357004576,-0.007910938527316,-1.9146725422570063e-05,7.963028060713429e-06,5.329123761554188e-05,11912,5.699635,-13.525989,-3.35187
-0.2030898710456176,1.6580660109810186,0.7687692346483787,-0.0061193584071757,0.0036503412504359,-0.0057818621021258,-1.588991070867679e-05,6.93309947621684e-06,4.576351320096385e-05,11913,5.158016,-13.543757,-4.657593
-0.0959107824003411,1.5643666481946743,0.7363647951479962,-0.0065485889772562,0.0028827433558359,-0.0040011308801749,-1.231788089945468e-05,5.669917014272649e-06,3.686930250085413e-05,11914,4.687668,-13.415886,-5.775183
0.0573844965195053,1.4839918902446343,0.6259171557695611,-0.006375194380345,0.0019580104539976,-0.0025485676344556,-8.60404903708182e-06,4.022289848111873e-06,2.603848771320881e-05,11915,3.878329,-13.279147,-6.469598
0.162469722457033,1.2724373606688562,0.5431590010439359,-0.0056522607725817,0.0010036292592154,-0.0013952895640726,-4.63337601598443e-06,1.7538842676310883e-06,1.205927932246717e-05,11916,2.847097,-13.111054,-6.72616
0.4524431773075958,0.9294521183203744,0.5735024574673688,-0.0045478093154178,0.0002326185341694,-0.0004213143012619,-3.758785386002129e-07,-1.1160495531293568e-06,-5.002869588681669e-06,11917,2.000065,-13.013143,-6.706156
0.991446926847256,0.5746146598665423,0.5854634027698158,-0.0031812746209329,-0.0002842198781755,0.0004430326674018,3.949582750723548e-06,-4.275136902094567e-06,-2.3490646062464127e-05,11918,1.188243,-13.300667,-6.442491
1.3489136808051048,0.2742784795890479,0.5524118643037396,-0.0016255715974446,-0.0006333093565548,0.0012092225659857,7.652798755267658e-06,-7.01198099484278e-06,-3.9473647301374725e-05,11919,0.619031,-14.117968,-6.241222
1.3034731439216998,0.1036882233624291,0.4543499596010536,-7.035969556739479e-05,-0.0009220288115835,0.0019776651694248,9.20077168566083e-06,-8.057079422425136e-06,-4.5688320824936266e-05,11920,0.449316,-14.810232,-6.492069
0.9021831765846756,0.0838134086537792,-0.0676834807224601,0.001195735569956,-0.0013557035597996,0.002914891305497,7.174090014559843e-06,-6.464985754202086e-06,-3.649098635143181e-05,11921,-0.018861,-14.901897,-6.421571
0.2943188743743493,-0.0508110202450322,-0.9689771719097684,0.0020216843957994,-0.002006253020262,0.0040887983920102,2.2008151367174047e-06,-2.9286667028676634e-06,-1.5671292414727346e-05,11922,-0.101516,-13.787365,-6.926391
-0.0983493099829977,-0.51714036352197,-1.4955115051235774,0.0023838940313792,-0.0027915761675893,0.0054783295555227,-3.0383785936149105e-06,5.027937914276547e-07,4.86942166857683e-06,11923,2.169007,-13.72782,-7.745999
-0.2148364979302145,-1.0314403498459543,-1.4045068077022882,0.0022816301038354,-0.0036443918052596,0.0070364156097199,-6.11827412626546e-06,2.159115282548304e-06,1.5229085841528604e-05,11924,4.873229,-14.396127,-8.050079
-0.5570373838857978,-1.2634999201473924,-1.257897696687645,0.0018054457582552,-0.0044402101900557,0.0086411724762319,-6.292942242981603e-06,1.6842367620734958e-06,1.3111865762033313e-05,11925,4.9055,-14.952069,-6.155731
-1.034066737080354,-1.2605090204347644,-1.2755164407754045,0.0011069764573843,-0.0051121889040131,0.0102257889930759,-3.8515466992598405e-06,-4.563933473222242e-07,9.635975583074929e-07,11926,1.370758,-13.525722,-3.034694
-1.1402422713424571,-1.1750123161876034,-1.2357807176078652,0.000420662494623,-0.0056687346144758,0.0117797148019322,1.9822414690896619e-07,-3.2916891763523296e-06,-1.5792436092122304e-05,11927,-0.457611,-11.444055,-0.92144
-0.9913066350085272,-1.06144951897678,-1.152428336908803,-0.0001535621735816,-0.0060800523022445,0.0132405963053577,3.723574548348281e-06,-5.330350501032268e-06,-2.8349583178101285e-05,11928,-0.25399,-9.913541,-0.301276
-0.7816050378057475,-0.9523908590900856,-1.0694498895361488,-0.0006691877199426,-0.0063099878438267,0.0145193720876972,5.076772002498092e-06,-5.7472505720405245e-06,-3.144510082305597e-05,11929,-0.253095,-8.69064,0.336726
-0.4662026411617159,-0.9041623701864684,-0.9170580561814382,-0.0010747873785861,-0.00633941321485,0.0155657771604922,5.300829197017717e-06,-5.534344333253425e-06,-3.062079036442974e-05,11930,-0.596401,-7.416836,1.281812
-0.2262810510391394,-0.8807979185282703,-0.7393780843819348,-0.0012655085633106,-0.0061559845850468,0.0163591653668628,6.549265599797709e-06,-6.17142386961894e-06,-3.46470593318255e-05,11931,-1.133304,-5.971282,2.444772
-0.1884564395857426,-0.7549738162446401,-0.6021681464295437,-0.001261376455707,-0.0057684811135449,0.0168938327464306,8.997809738367135e-06,-7.633696029048814e-06,-4.355676757843128e-05,11932,-1.74282,-4.337924,3.85237
-0.2015788541023208,-0.5240488702959809,-0.5213811817239429,-0.0011883317257158,-0.0052137173223302,0.017197112309767,1.1181038876979354e-05,-8.751821092930879e-06,-5.06161511237856e-05,11933,-2.299735,-2.646095,4.951699
-0.1906904452542767,-0.3458628256887243,-0.4704897057512287,-0.001082748733664,-0.0045274059120595,0.0172630732993017,1.220469714535436e-05,-8.814845516521601e-06,-5.1728856794096205e-05,11934,-2.46546,-1.083809,5.651567
-0.1811230208796618,-0.3155493697378126,-0.4182305664511518,-0.0009173033731576,-0.0037517814148086,0.0170517361077918,1.2229858832148511e-05,-7.968824813757563e-06,-4.772326047620146e-05,11935,-2.34113,0.314641,6.014233
-0.0848805266904701,-0.3260015538141907,-0.3819455275773218,-0.0007086819347683,-0.0029626733624192,0.016536075360115,1.17591138018953e-05,-6.678078026455151e-06,-4.12112414886324e-05,11936,-2.367542,1.605321,6.239726
0.1468777559695261,-0.2537728329626579,-0.3343579199685647,-0.000483917701215,-0.0022728166335623,0.015685935779567,1.1391818508759997e-05,-5.447290821214398e-06,-3.506834167311326e-05,11937,-2.520833,2.890232,6.340333
0.35432723729527,-0.1542520285419712,-0.2080360668484436,-0.0002530360240527,-0.0017374527264289,0.0144822732426852,1.1601321639119025e-05,-4.634330244594631e-06,-3.137156945739572e-05,11938,-2.656479,4.199863,6.464948
0.3976448893589244,-0.1229555390617103,-0.0551220241376258,-1.88392750317478e-05,-0.0013531412371199,0.0129237036148797,1.2329527382675086e-05,-4.209642769220529e-06,-2.993022037318433e-05,11939,-2.778918,5.510791,6.543997
0.4943064723837256,-0.1826751737932964,0.0166738959322692,0.0002293868151711,-0.0011059011974425,0.0110101665076721,1.3146565320659762e-05,-3.829661316827728e-06,-2.8760147909331453e-05,11940,-3.024511,6.754123,6.585229
0.9181928442313816,-0.3411336802315335,0.042754126405666,0.0005226760369535,-0.0009411127160078,0.0087503021188587,1.365330776335677e-05,-3.175845292082008e-06,-2.6028778008213784e-05,11941,-2.832506,7.903663,6.601016
1.3916411087060807,-0.5338205936516487,0.1108488358279331,0.0008700838866231,-0.0008290377070848,0.0061681065932786,1.3619351099072427e-05,-2.2501229633722293e-06,-2.1572916057920603e-05,11942,-2.435167,8.943863,6.371773
1.5087169282851307,-0.619998206838928,0.206475103293404,0.0012596302746162,-0.000766086513263,0.0033059799934635,1.2807089849728926e-05,-1.182465100755908e-06,-1.582843556135584e-05,11943,-2.453437,9.582765,5.697784
1.364633223399812,-0.5808855376064188,0.2800697297645822,0.0016841386444987,-0.0007141123792374,0.0002339822966014,1.07680116049551e-05,1.552817518515067e-07,-7.826252136757236e-06,11944,-2.435729,9.684848,5.418882
1.2182332093547734,-0.5357287664562723,0.3314496212404346,0.0021308404049633,-0.0006114108227077,-0.0029403090776479,7.254036529103421e-06,1.960252902935457e-06,3.573878940085209e-06,11945,-1.75376,9.210789,5.975663
1.1870090110121374,-0.5087679036534052,0.3919727743263626,0.0025878991935026,-0.0004314767460029,-0.006105242699668,2.7319233928665005e-06,4.10335893181213e-06,1.738812722362544e-05,11946,-0.717742,8.212333,5.847112
1.085490791422372,-0.4650197637828004,0.4777775986663718,0.0030461025781019,-0.0001787395976878,-0.0091354133670321,-1.7208826813728163e-06,6.061299837672234e-06,3.026645412538918e-05,11947,0.562113,6.658717,5.596914
0.4056508853804282,-0.4396857743668299,0.5920964005702898,0.0034870634232461,0.0001321312912299,-0.0118543853427963,-5.015409690147462e-06,7.234482149977528e-06,3.84863242512235e-05,11948,1.777624,4.540475,4.639362
-0.7357555732901697,-0.411650864253556,0.7352564958329894,0.0038836463171605,0.0004589472897898,-0.0140276274705256,-6.883928464077943e-06,7.504918599511029e-06,4.126885697095385e-05,11949,2.190103,2.083586,3.149119
-1.4226794981494968,-0.3526821377276958,0.8634354409775058,0.0041999181383959,0.0007813766497817,-0.0155492399118298,-8.013475363034146e-06,7.269708089141218e-06,4.1044582454008725e-05,11950,1.917645,-0.180556,2.070503
-1.3841476803109978,-0.2589786990865123,0.908983013033734,0.0043861994454665,0.0011014179024909,-0.0164521556500963,-9.265942410902302e-06,6.9327337745918165e-06,4.0428503511941776e-05,11951,1.859278,-2.298965,1.864359
-1.2162566437161797,-0.0918993872748976,0.8863922224772537,0.0043744439760884,0.0014037903218882,-0.0168220611092792,-1.1123090095331144e-05,6.7428282715346e-06,4.1008820597744335e-05,11952,3.032644,-4.164959,1.458541
-1.1654895521358013,0.0662565603834191,0.8805630810078661,0.0040715489187137,0.0016660564457924,-0.0168681151590653,-1.3707950695742597e-05,6.989477880910012e-06,4.426930663492365e-05,11953,4.314687,-5.995297,1.228513
-1.0793223720194238,0.2756721062522257,0.9044390037123496,0.0034377135163984,0.0018724331476259,-0.016656017118586,-1.6821870616448963e-05,7.869656487915152e-06,5.097257426726204e-05,11954,5.278595,-7.721296,1.2598
-0.9854472617877028,0.8763605890506744,0.8844498029450802,0.0024915836055094,0.0020094499837344,-0.0160962608112126,-1.9668490529527755e-05,8.993331770830848e-06,5.86088496561885e-05,11955,5.943993,-9.392589,0.87469
-0.8968121559099516,1.726190261055806,0.7936010738761922,0.0012710661600732,0.0020652604358673,-0.0151319214472121,-2.1002265143935887e-05,9.509387145560291e-06,6.213133232721931e-05,11956,6.405522,-10.917695,-0.204313
-0.7688260750007466,2.1663403230455343,0.6884189265018955,-0.0001372842354627,0.0020319920787054,-0.0136648172995635,-2.029038018418741e-05,9.084492385755122e-06,5.9528901961200494e-05,11957,6.43574,-12.228717,-1.440169
-0.6275201896480893,2.070450612249038,0.6197589513000689,-0.0016404301120866,0.0018856559138414,-0.0117150587861084,-1.824796598594144e-05,8.191681592163413e-06,5.362113632289398e-05,11958,6.105297,-13.11175,-2.687553
-0.4761500706435421,1.8773551371377395,0.5943782909974067,-0.0031312847194022,0.0015838342544574,-0.0094560155686178,-1.5592353722875364e-05,7.177314540132655e-06,4.664017848125978e-05,11959,5.695294,-13.604467,-4.148801
-0.4034225514317123,1.7618050153354825,0.5995163374896779,-0.0044291256930947,0.0010740676500145,-0.0070989952310622,-1.221560192767447e-05,5.861130961565179e-06,3.76620471082746e-05,11960,5.177954,-13.77976,-5.516508
-0.3701890716090178,1.6632892948679932,0.5884409648287648,-0.0052705722553326,0.0002847017743716,-0.004963927925044,-8.254063705506052e-06,4.2692801299997184e-06,2.6919876058068588e-05,11961,4.835689,-13.640994,-6.670033
-0.0677355118821044,1.51447237225277,0.5239281620663084,-0.0055318877245306,-0.0007750067328308,-0.0032035004269815,-4.524783604160147e-06,2.714652015583781e-06,1.653421386853337e-05,11962,4.315147,-13.304976,-7.470327
0.4606838891912906,1.1302040757549758,0.457335612610821,-0.0052337182120844,-0.0020016020827735,-0.0017792727505208,-1.1800729779471955e-06,9.987720669956457e-07,5.6724332579977285e-06,11963,3.40143,-12.851858,-7.882974
0.7524182437508814,0.555780188502717,0.4327044159173657,-0.0044307219641784,-0.0032398879058229,-0.0006457588252534,2.3962998659453587e-06,-1.320451766321877e-06,-8.250166010350988e-06,11964,2.378362,-12.472549,-7.352805
0.6873170088666893,0.1565340193340554,0.3982831085471475,-0.0032854403030439,-0.0042358569530413,0.0003412558946654,5.914632314271261e-06,-3.8505897126362784e-06,-2.31223094329117e-05,11965,1.37083,-12.688176,-6.35824
0.5864094147837782,0.0751043508086478,0.3122242086578095,-0.001926441395972,-0.0048974856414058,0.0012756240065295,7.877420278742454e-06,-5.434921752548089e-06,-3.223997692689182e-05,11966,0.788374,-13.505454,-5.689595
0.5900518357674243,0.110576163662851,0.2490045160713413,-0.0004531388367056,-0.0053112511356835,0.0021921300503599,7.101839285006819e-06,-5.193040006881726e-06,-3.046547359191465e-05,11967,0.855554,-14.142709,-5.994781
0.5117284282226533,-0.0025482441113248,0.2500737528178264,0.0009149632511086,-0.0055861426154955,0.0032266701258537,3.847806977166856e-06,-3.2473971054809584e-06,-1.858524334732296e-05,11968,1.188004,-14.18154,-6.286783
0.2263589873924825,-0.383899236096136,0.0830348030932538,0.0018478060714158,-0.0059411763856582,0.0045937574650762,-4.560905116164381e-07,-6.58784886827771e-07,-2.7999719377731865e-06,11969,2.93604,-14.362334,-6.813338
-0.1338665245905591,-0.852775767353541,-0.4208868520487143,0.0022180305058008,-0.0064434097121753,0.006335629893417,-4.255778073099799e-06,1.3517252824595356e-06,9.814471141085522e-06,11970,4.452894,-14.616713,-6.855189
-0.3330804181090496,-1.114861240765137,-0.9252903329767502,0.0021031022011385,-0.0069840861078655,0.0083210203027467,-6.278365808438709e-06,1.9851011280666265e-06,1.4432414780614428e-05,11971,5.317928,-14.555096,-5.901153
-0.3385654702732494,-1.140735493861727,-1.12491914289381,0.0016490577392695,-0.0074694929073815,0.0103368037225248,-5.61615210202725e-06,9.356435013522232e-07,8.889886053787867e-06,11972,3.726575,-13.701923,-3.232282
-0.3069829049252077,-1.0663239216799956,-1.2575745827987317,0.0011774177283852,-0.0077387520609886,0.0119962426981265,-2.6130815617279434e-06,-1.3783436720191697e-06,-4.534981898370867e-06,11973,1.432355,-11.669512,-0.634269
-0.2869993607938108,-0.9113782559377084,-1.5235131881328483,0.0008219996790925,-0.0077348115831809,0.0131449885479266,1.0511540700236458e-06,-3.8979529544830485e-06,-1.946067844536588e-05,11974,0.552622,-9.92589,1.170733
-0.2423204827297575,-0.7104701569515455,-1.6555081500171362,0.0005145116125521,-0.0075316827030449,0.0138804049484035,3.762282255717122e-06,-5.6269399242004485e-06,-2.9857227578411088e-05,11975,0.405892,-8.667677,2.064344
-0.1647651686428111,-0.6121678374223907,-1.4238741036528682,0.0002503094153179,-0.0071939678253512,0.0142868402853292,5.111225384627993e-06,-6.304849956440043e-06,-3.4158496058686675e-05,11976,0.215735,-7.504572,2.908825
-0.0824894978888597,-0.6082795450313712,-1.026178617521574,-6.597804864863998e-06,-0.0068360572991292,0.0145572310837992,5.854146483897857e-06,-6.496236377118508e-06,-3.566124442030751e-05,11977,-0.166103,-6.162937,4.081458
-0.0556753378260485,-0.4961445262355946,-0.78183539747594,-0.0002574882414834,-0.0065064434641144,0.0147619446168028,6.660386199731844e-06,-6.684893223067216e-06,-3.720894149622129e-05,11978,-0.500299,-4.643678,5.482023
-0.0836811480742329,-0.254785390937536,-0.7457844081314805,-0.0004405524090309,-0.0061695642157401,0.0148191272295165,7.414681080681863e-06,-6.690681506579374e-06,-3.784835410959028e-05,11979,-1.026814,-3.040485,6.678449
-0.1651893482796864,-0.0986912751685373,-0.7497053504297393,-0.000531968947659,-0.0058071860294479,0.0147005675785223,8.00936348828161e-06,-6.369320736644224e-06,-3.679880311007069e-05,11980,-1.436838,-1.539533,7.314463
-0.2519601183551095,-0.1008875691065509,-0.7019736616298116,-0.0005230992690784,-0.0053809986636477,0.0143648785142363,8.540446562631504e-06,-5.897502860649903e-06,-3.497703155315957e-05,11981,-1.584539,-0.206985,7.603657
-0.1558089727799958,-0.1255513937711166,-0.6456535039790123,-0.000404264905608,-0.0048837815838027,0.0137830265159812,8.928648719801428e-06,-5.345423056668472e-06,-3.265554748828392e-05,11982,-1.658831,0.978122,7.732778
0.1239024975924883,-0.1065417470191869,-0.5834360969761477,-0.0001793503657108,-0.0043524512210393,0.0129603858961217,9.22111369732562e-06,-4.716218392836122e-06,-2.9887599353043985e-05,11983,-1.804096,2.101007,7.808972
0.3500153143013791,-0.0872478448788551,-0.4895392829603596,0.0001401819510626,-0.0038159132477388,0.0118736411907434,9.63409229418618e-06,-4.077707545615718e-06,-2.7170461382077352e-05,11984,-1.927937,3.296092,7.882952
0.3819000236294646,-0.0805800671819343,-0.3940151137397333,0.0005311722939522,-0.0033138615684179,0.0104815247150297,1.0178208660465228e-05,-3.4526431009712603e-06,-2.4618034386840645e-05,11985,-2.005625,4.608662,7.974307
0.3124067785460763,-0.0892386819995773,-0.3534650688171394,0.0009820862211582,-0.0028681311024534,0.0087577216110296,1.0709932448469703e-05,-2.82722639002242e-06,-2.2045267966291663e-05,11986,-2.14438,5.997419,8.093337
0.4716629851250919,-0.1316721720319752,-0.349749908326361,0.0014938774765691,-0.0024755543989481,0.0066827872802707,1.1096583728535787e-05,-2.1798419568927838e-06,-1.92483059550084e-05,11987,-2.331434,7.357412,8.187762
1.0120057058319871,-0.1665555873695756,-0.2844582547849988,0.0020626952432294,-0.0021357607134371,0.0042355238708173,1.112965996321505e-05,-1.4740758320866811e-06,-1.5896370443467054e-05,11988,-2.366193,8.595445,8.131772
1.5179990641379535,-0.1596065348927957,-0.1744674925685563,0.0026859201559817,-0.0018402886624735,0.0013980613988479,1.0469025590148792e-05,-6.625874318046319e-07,-1.1494302601911107e-05,11989,-2.071724,9.536663,7.988605
1.5933430896326914,-0.2076543082335533,-0.0715785955374168,0.0033385430130696,-0.0015825978564759,-0.0017621735287408,8.876870890107216e-06,3.0731672433797854e-07,-5.598740454345411e-06,11990,-1.832888,9.814923,7.920795
1.3995687257966969,-0.3700142487607475,0.1086682383542349,0.0039671328941701,-0.001359808270341,-0.0050751128354475,6.39980807137888e-06,1.4881872715290291e-06,2.0057776861968527e-06,11991,-1.184846,9.404975,8.35007
1.2865992798768875,-0.5311936101067822,0.366678098690987,0.0045006686364188,-0.0011571711921081,-0.008283934041833,3.027560472943943e-06,3.0458548427233884e-06,1.211943240475914e-05,11992,-0.226906,8.437016,8.619475
1.298460420281773,-0.659290799715955,0.5798160312045288,0.0048368253395099,-0.0009489396560307,-0.0109928725965979,-1.1620320879082077e-06,5.0181798463841655e-06,2.486057391387364e-05,11993,0.84468,6.984046,8.376109
0.923049681883791,-0.8522869851715296,0.7132322960178938,0.0049306482184445,-0.0007255672456003,-0.01301102555155,-5.199097142111513e-06,6.818271734543622e-06,3.66580348358083e-05,11994,2.194661,5.023326,7.501832
-0.2677931863113204,-0.9715806982071248,0.7865640169489198,0.0048008453645221,-0.0004929870813191,-0.0143663530108336,-7.785302983252937e-06,7.690788780493566e-06,4.287772106108705e-05,11995,3.178065,2.718761,5.886461
-1.5480960617116653,-0.7990499331034964,0.7866209430905997,0.0044795028464441,-0.0002602702818723,-0.0151016990966657,-8.731966846224513e-06,7.560561738445163e-06,4.30148414992773e-05,11996,3.531203,0.560712,4.28205
-1.9342262280733935,-0.4801347697674886,0.7446304928082086,0.0040435401330994,-4.780127990620898e-05,-0.0153830751498068,-8.921646735874891e-06,6.886977344559599e-06,3.996827004926336e-05,11997,3.254728,-1.535511,3.842693
-1.6879758112190368,-0.2484728470207982,0.7427294235812718,0.0035276371657802,0.0001317043725606,-0.0152915224711195,-9.28739217721131e-06,6.153855519064849e-06,3.678904568389106e-05,11998,3.553153,-3.235434,3.110914
-1.5181026657911607,-0.2091049085629341,0.8039263833895498,0.0029199124579109,0.0002735673621465,-0.0148108708734748,-1.043981641681903e-05,5.83815679829179e-06,3.6229818997780925e-05,11999,4.649365,-4.937784,2.5129
-1.464412191854456,-0.2794224807375614,0.8964710242946994,0.0022319265747573,0.0003643372782915,-0.0140268895423344,-1.266864016137922e-05,6.300752457514209e-06,4.02312184261852e-05,12000,5.435779,-6.532014,2.165761
-1.3112468288500356,0.0620982765818992,0.9627173596784668,0.0014774187137738,0.0003852673592228,-0.0130866174588882,-1.5484586010006172e-05,7.30728954918753e-06,4.727929389616838e-05,12001,6.075504,-8.055086,1.877844
-0.9839024703218532,0.996696001249502,0.9403665768869524,0.0006728201030238,0.0003239389265327,-0.012057171569805,-1.759453539953886e-05,8.081598516951423e-06,5.264324715837217e-05,12002,6.372938,-9.517138,1.280353
-0.5473104538122244,1.7790549369032815,0.8453343844737174,-0.0001543503400349,0.0001726462245859,-0.0109437517632242,-1.795428251719081e-05,8.06696797789185e-06,5.2843907475031584e-05,12003,6.335484,-10.77409,0.219599
-0.2490353148930289,1.9205554350898968,0.7455575539161705,-0.0009793533600898,-7.517627900887193e-05,-0.0097312654370234,-1.645623457587472e-05,7.270254788161296e-06,4.783746801583405e-05,12004,6.085032,-11.770389,-0.961628
-0.1661050287794644,1.8166300919869296,0.6813229430780879,-0.0017768877648214,-0.0004221003851046,-0.0083474593251617,-1.371461694170379e-05,5.995997726433691e-06,3.9569285847784286e-05,12005,5.659276,-12.457109,-2.229023
-0.0767596978936105,1.769374306484241,0.6488601416002249,-0.002503974002638,-0.00086842572213,-0.0067956113446195,-1.057836227741016e-05,4.583971919798476e-06,3.033164834638715e-05,12006,5.241635,-12.909616,-3.674055
0.0306765642564324,1.6621105951947832,0.6213105779654784,-0.0030980149480775,-0.0014111623628112,-0.0051611529196075,-7.529574195951058e-06,3.2310160205815577e-06,2.144072210967416e-05,12007,4.781303,-13.185757,-4.91515
0.0901850055496962,1.51881425645655,0.5678777546209492,-0.0034774361735791,-0.0020395086034954,-0.003522382052622,-4.500744721031644e-06,1.8929572523016147e-06,1.263087099707058e-05,12008,4.31011,-13.313793,-5.790244
0.3834309280648051,1.4305704984676324,0.4852830561637604,-0.003531449194604,-0.0027329883945482,-0.0019894665055199,-1.254527571588203e-06,3.2283437109158725e-07,2.5402273060272164e-06,12009,3.595517,-13.267045,-6.119738
0.945233437908262,1.33979051470592,0.4279721461139008,-0.0032104046062693,-0.0034808249212922,-0.000619212571471,2.3527783967295026e-06,-1.7681840589421133e-06,-1.0316797745121497e-05,12010,2.631472,-13.042249,-6.226301
1.275927734640883,1.1609052629847216,0.4189290326830901,-0.0025321273599596,-0.0042813878211629,0.0005985568578729,6.357086570101487e-06,-4.4598641945713066e-06,-2.6344670584041597e-05,12011,1.709661,-12.759325,-6.25797
1.1802348349717935,0.8540039920446073,0.3738488736827772,-0.0015353286265743,-0.005130337150749,0.0016740509577137,1.0355965924703829e-05,-7.320091747031062e-06,-4.316250062756169e-05,12012,0.882568,-12.838825,-5.962199
1.0196204944829192,0.5504852482865926,0.2324353725175785,-0.0003133228435638,-0.0060252628765517,0.0026481308678689,1.2975524791406414e-05,-9.276972137739242e-06,-5.457368638718086e-05,12013,0.296273,-13.514749,-5.252969
1.000353477757287,0.4107915986024458,0.1435374248080987,0.0010311477064925,-0.0069502805161389,0.0035648644895684,1.2518697094280382e-05,-9.21967745419294e-06,-5.393726248827144e-05,12014,0.340301,-14.097124,-5.210147
0.8945114573847519,0.2383370498470381,0.1619796763371131,0.0023772865617927,-0.0078725169858479,0.0044713755845067,8.832175768907936e-06,-7.078615448326878e-06,-4.079191892590654e-05,12015,0.515506,-14.015201,-5.56225
0.4295251474661132,-0.2954269046774769,-0.0316610002435766,0.0035193381477688,-0.0087501514987671,0.0054651047429594,3.809051004262144e-06,-4.041674951817955e-06,-2.2299904222205383e-05,12016,2.060514,-13.848692,-6.106928
-0.2980302993336156,-1.0204880526076494,-0.4390944505819373,0.0041552379128797,-0.0095242777121463,0.0066978432288172,-4.297614925542024e-07,-1.530225050447026e-06,-6.9334453440810345e-06,12017,3.500632,-14.12035,-6.378926
-0.8115003285104577,-1.4241590455727071,-0.6886422158039242,0.004191304848444,-0.0101606699690096,0.0082005308522717,-2.8605364793895664e-06,-3.132649317915279e-07,8.132866455401669e-07,12018,4.76827,-14.388843,-5.683228
-0.8799120821770999,-1.3810023719549736,-0.9559183798635452,0.0037572911560215,-0.010652101663635,0.0098752322456696,-3.075241902996018e-06,-5.746924284591495e-07,-2.646518283526058e-07,12019,3.714832,-14.082396,-4.125536
-0.775229901868759,-1.2066593141432715,-1.4862883534828133,0.0030659540791036,-0.0109920682256603,0.0115729396423401,-1.0679016548619969e-06,-2.13024274543802e-06,-9.290608985715804e-06,12020,1.151074,-12.552087,-1.946112
-0.7112333110580229,-1.0606679934317864,-1.8305512178777772,0.0025269102414175,-0.0111879775657352,0.013027638289352,2.168012936643284e-06,-4.289740528279896e-06,-2.2182020529496145e-05,12021,0.528196,-10.938924,-0.453304
-0.6506456443392177,-0.8254040425954166,-1.7197144304815422,0.0022944615788387,-0.0112364107401047,0.0141183426134203,4.897347094346963e-06,-6.032996747047789e-06,-3.2689024979373935e-05,12022,0.342512,-9.536642,0.287028
-0.5072034422925491,-0.5489181415250748,-1.4850225286698535,0.0022431244277344,-0.0111211413423568,0.0148816812745614,6.242604350380727e-06,-6.9205109151882335e-06,-3.8005520066555765e-05,12023,-0.002034,-8.249113,1.520802
-0.2674042885748502,-0.4023553258043425,-1.246618951088102,0.0022741504547481,-0.0108366877154048,0.0153326860496526,6.939783067200473e-06,-7.477301673154093e-06,-4.121349069281849e-05,12024,-0.436617,-6.861545,2.990861
-0.0813482653386452,-0.3452876041773157,-0.9600068749688077,0.0021815551325545,-0.0103829049665258,0.0155402326519552,7.728976355481514e-06,-8.105672871251133e-06,-4.482935238847718e-05,12025,-0.853695,-5.290112,4.701354
-0.0525637171515304,-0.2564700488906524,-0.8068783968868093,0.0018982093772565,-0.0097660879335436,0.0155362119137845,8.211224382135583e-06,-8.366715662478302e-06,-4.6458629155540215e-05,12026,-1.179671,-3.673646,6.220789
-0.0691999227122303,-0.1729487395730419,-0.7936661459841293,0.0015335396170427,-0.0090039360671404,0.0153006260923647,8.004212007533955e-06,-7.848536112446906e-06,-4.38360613856403e-05,12027,-1.403396,-2.225413,7.158105
-0.0587133412106278,-0.1717888858932464,-0.7631883738191322,0.0011556738586546,-0.0081244886074803,0.0148684974616628,7.473274575561765e-06,-6.810945133634104e-06,-3.848059180379426e-05,12028,-1.374744,-1.039184,7.510989
-0.0413772545592009,-0.1860206717276943,-0.6958422690325786,0.0008691952021133,-0.0071711994992352,0.0143102304174032,7.027444552656676e-06,-5.689943155717157e-06,-3.279104554923241e-05,12029,-1.33119,-0.022792,7.543047
0.0221350586837842,-0.1700844694531793,-0.6038055356617975,0.0007263126720251,-0.0061826272906813,0.0136385317649297,6.78614794169864e-06,-4.698408161550023e-06,-2.78784923342589e-05,12030,-1.446511,0.938533,7.438058
0.1115092467592527,-0.1785526219423209,-0.5016756457111526,0.0007001338343919,-0.0051944519915995,0.0128159204775749,6.690942207418847e-06,-3.860624745171525e-06,-2.3807606668212026e-05,12031,-1.547221,1.981983,7.463461
0.1581539345207851,-0.2056337517554411,-0.4246916042348018,0.0007854403567683,-0.0042575684427224,0.0117833031203109,6.614722997403432e-06,-3.0750006747395808e-06,-1.9989950435215984e-05,12032,-1.476075,3.158636,7.61178
0.147075111734201,-0.2193703958342265,-0.3764521759057808,0.0009659845657598,-0.0034368048714164,0.0104317782438445,6.735173802505457e-06,-2.323567446389693e-06,-1.648826782581015e-05,12033,-1.334172,4.397502,7.738301
0.0890407530845947,-0.2236227587273558,-0.3228254604805688,0.0012426104654795,-0.0027717135511869,0.0087044527288708,7.449020214434955e-06,-1.7313493557195226e-06,-1.4219687761050463e-05,12034,-1.464029,5.601105,7.682047
0.190876217726318,-0.2397866530692919,-0.2295822753282755,0.0016456222959221,-0.0022761825079131,0.0065990042877792,8.78813154320879e-06,-1.313752307648056e-06,-1.3279475267415015e-05,12035,-1.497395,6.788629,7.257009
0.6528367744000593,-0.2582001229048247,-0.0917483228611207,0.0021957770614012,-0.0019556129294511,0.0040950647863523,1.0261256655635256e-05,-8.590024234602135e-07,-1.2266119245638231e-05,12036,-1.774029,7.901186,6.455364
1.1703687500424969,-0.2286626068766313,0.0679181378242471,0.0029159096074414,-0.0017934867029539,0.0011800546085438,1.1151783976316791e-05,-1.2350225073545538e-07,-9.45796395535137e-06,12037,-2.109949,8.872732,5.523674
1.320551393127675,-0.2347620584003845,0.2535585138786934,0.0037816319241649,-0.0017779132033276,-0.0020694730531894,1.0793807091640892e-05,9.5586206880139e-07,-4.03006695188878e-06,12038,-2.190565,9.303564,4.771219
1.1696545772896618,-0.4278757889330671,0.5350547325362407,0.0047077945784963,-0.0018996063496818,-0.0054757199502451,8.668003597968432e-06,2.403468755805588e-06,4.557708651823147e-06,12039,-1.674151,8.977261,4.454502
1.0539025375505888,-0.7037671159214313,0.8661908673590932,0.0055713631156035,-0.0021232503824833,-0.0087573153850398,4.904851614700633e-06,4.199968726829615e-06,1.612174673542508e-05,12040,-0.694644,8.040984,4.356061
1.0668579494784745,-0.8092335076176069,1.033716472628999,0.0061819729725302,-0.0023879145238853,-0.0114757562932709,5.531627286757983e-07,6.011960669407019e-06,2.823845941031059e-05,12041,0.605299,6.473283,4.179357
0.7864934024059199,-0.725915138252234,0.9799365156610372,0.0064496607855727,-0.002665510971083,-0.0134239500978401,-3.4402708703671383e-06,7.488390224759246e-06,3.847494365952957e-05,12042,2.114858,4.299679,3.699326
-0.1859690262973546,-0.6429284268310722,0.8939989408646827,0.0063936179669315,-0.0029590648157936,-0.0146396458592346,-6.805044902351456e-06,8.579908490714194e-06,4.637602391461017e-05,12043,3.457722,1.770522,2.49369
-1.2894789988805693,-0.5984271671809835,0.8699547227699004,0.0060396037823875,-0.003273298786807,-0.0151794591543508,-9.442995263244064e-06,9.315388443743904e-06,5.199700896051738e-05,12044,4.234857,-0.532134,1.117835
-1.6594828135463475,-0.3824854456595972,0.8505157931506523,0.0054735314875586,-0.0036309651477125,-0.0152405751541542,-1.1474347004686076e-05,9.755607692756553e-06,5.571927433055296e-05,12045,4.328111,-2.443132,0.415361
-1.4597626603527003,0.0632531691278044,0.8776575134479923,0.0047414143546564,-0.0040274490168834,-0.0149245342452246,-1.3343791714340216e-05,1.0019051209604372e-05,5.846431683322296e-05,12046,5.077587,-4.124372,0.029953
-1.2964948784450328,0.3481415071973745,0.974299175475624,0.0038433547242505,-0.0044261519961722,-0.0142242963074978,-1.5146291521695246e-05,1.007035521372065e-05,6.014996711056472e-05,12047,5.978971,-5.731054,-0.254353
-1.2404383160486998,0.3071135728141844,1.031604753845245,0.0028311377602114,-0.0047912255323913,-0.0132495855259833,-1.633047360108425e-05,9.735132033690209e-06,5.9511972719673e-05,12048,6.37565,-7.223316,-0.242176
-1.1635149975451853,0.5395511135106816,1.0046913323764688,0.0017892477409749,-0.0050727087520323,-0.0121814499853843,-1.6452654845546587e-05,9.012322453664172e-06,5.618236888123213e-05,12049,6.6985,-8.668589,-0.196813
-0.9496151229092796,1.2943293353897252,0.9466473853812024,0.0007637468318838,-0.0052612909030512,-0.0111043160955003,-1.571154791852953e-05,8.142560919877499e-06,5.145117257710147e-05,12050,6.715526,-9.930547,-0.648247
-0.5659948158949681,1.8423128707067076,0.8831299245367799,-0.0002281824478362,-0.0053971252284945,-0.0100255044810857,-1.4369543549169264e-05,7.251463179292948e-06,4.612384118694173e-05,12051,6.525612,-10.876396,-1.632453
-0.2474479585633726,1.7981762933438734,0.8089234099767802,-0.0011751583348235,-0.0055373886808811,-0.0089260270740259,-1.2366576867966805e-05,6.2709595220977214e-06,3.983722396725832e-05,12052,6.141323,-11.475579,-2.67884
-0.0482795746323646,1.600111197128622,0.7772365585012311,-0.0020888971436294,-0.005780062632705,-0.0077153310816872,-9.68997134144874e-06,5.168821327430455e-06,3.243533245546999e-05,12053,5.622706,-11.74999,-3.707881
0.149322335198059,1.4898808418906837,0.8143876156350163,-0.0029357825072993,-0.0061593277816517,-0.0063852100145403,-6.344374143040786e-06,3.797061998413749e-06,2.3220783937903174e-05,12054,5.209491,-11.800012,-4.734449
0.3302305989498699,1.4034405621992372,0.8231468589990903,-0.0036306300796037,-0.0066377223458166,-0.0050155937449578,-2.214514930223952e-06,1.8883833695211996e-06,1.0827612199337226e-05,12055,4.720367,-11.702962,-5.643844
0.6739790424054604,1.335488226915941,0.7238075047597113,-0.0040777988917502,-0.0071731649550753,-0.0036660359993512,2.5735113288789144e-06,-5.794775913516961e-07,-4.755915017868793e-06,12056,3.845326,-11.584696,-6.148464
1.2321131311508458,1.090369176829633,0.5697222409672271,-0.0041464049568137,-0.0076843228604461,-0.0024172039332025,7.660353518359536e-06,-3.4715417118181944e-06,-2.2603287787739654e-05,12057,2.675935,-11.425265,-6.32079
1.5764911095812166,0.6081464208619052,0.4952117743377642,-0.0037954143012453,-0.0081395816592411,-0.0012940673210402,1.2776462848302883e-05,-6.717731535672701e-06,-4.215868541650683e-05,12058,1.55124,-11.292445,-6.409586
1.5293902705502451,0.2551872079232921,0.5079249158441113,-0.0030888816611978,-0.0085658766285891,-0.0002475221631211,1.7528660480175078e-05,-1.0020679474697131e-05,-6.168255057582944e-05,12059,0.76654,-11.434926,-6.481569
1.3692855384413651,0.1847039261216175,0.452413602008387,-0.002126845393665,-0.0089791451153881,0.0007854563022423,2.0970122561626623e-05,-1.255316989217664e-05,-7.647874410254756e-05,12060,0.308607,-12.121035,-6.383228
1.3112217676514089,0.1931019802795896,0.356297028717537,-0.0010966825291721,-0.0094111850202376,0.0019155173256354,2.1929706540305252e-05,-1.3421562611452817e-05,-8.13628793273258e-05,12061,0.18923,-12.837862,-6.431438
1.2725815279399062,0.1397227917832363,0.3124267580551926,-0.0001215689820268,-0.0098661279057827,0.0031787286401633,2.014968640700677e-05,-1.2548905754586187e-05,-7.57661388503578e-05,12062,0.035278,-13.104697,-5.963301
0.8823998902368468,0.0048095835455116,0.0683388373604468,0.0007414545638103,-0.0103107249055455,0.0045247878680125,1.6678679683848095e-05,-1.0699529365495676e-05,-6.416685710364343e-05,12063,0.660035,-12.736471,-5.678517
0.0563368730737913,-0.1821157444303175,-0.5086450755081213,0.0013760321157284,-0.0107137560678003,0.0059002898887132,1.293710282484489e-05,-8.763043727242026e-06,-5.194306005198091e-05,12064,2.209413,-12.856386,-5.915122
-0.5790055519247583,-0.4090889601777364,-1.050911456343878,0.0016365600757498,-0.0110295811151059,0.0072075410320271,1.0087464277593957e-05,-7.498688427678588e-06,-4.364585149844707e-05,12065,3.445409,-13.050799,-5.821967
-0.680804012128731,-0.7284924167261616,-1.3072838360382106,0.0014934039413826,-0.011234208153418,0.008394573115318,9.090111666069442e-06,-7.514276899701628e-06,-4.293159688960879e-05,12066,3.719051,-13.113045,-5.473736
-0.7164085923394817,-1.0329239724426822,-1.4137540636852508,0.0010372042158806,-0.0113310070618788,0.0094638538045619,1.0208070909295225e-05,-8.819586515119483e-06,-5.004835416551795e-05,12067,2.005164,-12.087616,-3.852986
-0.8820283376406141,-1.0701754149394151,-1.444950892068364,0.0004466583438359,-0.0113209673767933,0.0103945462833751,1.2409336396055286e-05,-1.057971146445146e-05,-6.0198807679211634e-05,12068,0.430451,-10.538348,-2.313754
-0.9328194744957494,-0.8680589666022899,-1.3831100339469438,5.3060621797599504e-05,-0.0112151220245584,0.0111666938174763,1.4172280530536136e-05,-1.1811178731777313e-05,-6.748948922981335e-05,12069,0.344992,-9.50845,-1.796556
-0.8793019505080352,-0.6726398594797551,-1.317354879320134,-2.3725181629189005e-05,-0.0110180752043194,0.0117674359432862,1.4923875618123734e-05,-1.229806497023572e-05,-7.042679327026269e-05,12070,0.387272,-8.704525,-1.660593
-0.7448799230687233,-0.5902064404206658,-1.2505843652766564,0.0001112031839227,-0.0107256118817987,0.0121842953170696,1.5157498728618315e-05,-1.25061475968885e-05,-7.161146308562715e-05,12071,0.079654,-7.848652,-1.122368
-0.4554111960017686,-0.5808972215058796,-1.0926991217132502,0.0003516810375042,-0.0103438357569406,0.0124216903089617,1.54884916947542e-05,-1.2861067133900196e-05,-7.356287320993608e-05,12072,-0.363879,-6.737787,-0.058986
-0.1948464920887102,-0.5292282664945785,-0.8807032203302667,0.0004800853321472,-0.0098857998427383,0.0125036233828919,1.6077484089727866e-05,-1.3458496380688486e-05,-7.687401017924098e-05,12073,-0.825,-5.414886,1.428514
-0.1416023643150093,-0.3806203199382859,-0.772217734546287,0.0004229590934954,-0.0093555493025022,0.0124307776317194,1.6828157567431917e-05,-1.4237852397338648e-05,-8.118201710608633e-05,12074,-1.230335,-4.057621,2.682809
-0.103473986928407,-0.2448785938535214,-0.843902836560914,0.0002799444089159,-0.0087498392028392,0.0121819394920015,1.7654657056167332e-05,-1.5059220875007584e-05,-8.574867036384109e-05,12075,-1.460028,-2.765818,3.452192
0.1285657193621759,-0.1987051081757496,-0.9107221280195512,0.0001184811568406,-0.0080635544786087,0.0117370932532151,1.8139247987679945e-05,-1.5508435616328546e-05,-8.82725855630325e-05,12076,-1.562747,-1.765125,3.74452
0.386511163693997,-0.193789659843074,-0.7803795946179773,5.236696180244073e-05,-0.0072855094379687,0.0110661724391554,1.763273100471673e-05,-1.513862862277531e-05,-8.611538261186472e-05,12077,-1.685749,-0.957083,3.613806
0.4639801261068892,-0.1842749107869067,-0.5659217132594343,0.0001318165840143,-0.0064119886382702,0.0101573590865346,1.6122098243420204e-05,-1.4050517852781038e-05,-7.974270666658275e-05,12078,-1.770852,-0.199726,3.468005
0.4627384003877487,-0.1734436798861217,-0.4493340358159831,0.0003181908972535,-0.005447453390547,0.0090209917079299,1.4086333949578194e-05,-1.2619566952434194e-05,-7.131639033212386e-05,12079,-1.635972,0.623119,3.511725
0.5139110930447424,-0.1804615695300204,-0.4150425344766122,0.0005952737090406,-0.0043949820176134,0.0076692172504801,1.1785372682131129e-05,-1.1012206050908815e-05,-6.183596287571095e-05,12080,-1.501389,1.511521,3.652164
0.5230551292704443,-0.188812933971333,-0.3852110553480007,0.0009314695505651,-0.0032601083456775,0.0061262710961032,9.467457915019164e-06,-9.435042812787089e-06,-5.248671693453986e-05,12081,-1.476341,2.354797,3.711474
0.4530979616700147,-0.1867983809291901,-0.3491214719225504,0.001310257171206,-0.0020477290803586,0.0044110067883536,7.5321165667624605e-06,-8.20544725222315e-06,-4.509626381099817e-05,12082,-1.510891,3.09592,3.426982
0.4888068295151264,-0.273858611014949,-0.282620910335935,0.0017422928962706,-0.0007614724269922,0.0025361354042679,5.947839709627846e-06,-7.309846599278492e-06,-3.957233484003968e-05,12083,-1.899442,3.757947,2.94181
0.6573053765832029,-0.4992132792365247,-0.1716548752368639,0.0022200201433495,0.0005914129039616,0.0005270797685133,4.061316447688324e-06,-6.334509966668163e-06,-3.34318799669727e-05,12084,-2.0854,4.291208,2.37056
0.7464227051088317,-0.6520495641903528,-0.0828839791426601,0.0027277492337649,0.0020003674634672,-0.0015803503929176,1.4208051074005598e-06,-5.0281733331351375e-06,-2.5122806427748297e-05,12085,-1.840028,4.595007,1.948993
0.6738410742895466,-0.6114366099069921,-0.0539870119046322,0.0032340680769866,0.0034503387268672,-0.0037266442747971,-1.8804134887228624e-06,-3.425755436330459e-06,-1.4873740893874703e-05,12086,-1.179481,4.393359,1.568808
0.5849499247931731,-0.6596265591058964,-0.0360386573468684,0.0036818519791996,0.0049196338275379,-0.0058195984572013,-6.051373588398129e-06,-1.2732190504949216e-06,-1.2998666192939443e-06,12087,-0.543556,3.743867,0.593448
0.5760736762317464,-0.9587028494415069,-0.0031978704052824,0.0039937668438705,0.0063785629696583,-0.0077332207985587,-1.159813335307206e-05,1.8413644483727172e-06,1.7955151111181253e-05,12088,0.210713,2.791233,-0.991008
0.4421487235688242,-1.2017312774208226,0.0164547683331176,0.0040605923148503,0.0077862000499776,-0.0092917248220739,-1.8201158879436e-05,5.747373893996227e-06,4.181449043918893e-05,12089,1.637173,1.52183,-3.042355
-0.0424289332668833,-1.1768419631506686,0.0339921463602765,0.0038297376055104,0.0091186561740001,-0.0104034469863109,-2.47468228838125e-05,9.778734805971395e-06,6.621935967423438e-05,12090,3.163049,0.022453,-5.62787
-0.6707098774627966,-1.0609741650003377,0.0580764368173079,0.0033108022114388,0.0103700666635933,-0.0110674721485798,-3.0464894447081944e-05,1.344787170197819e-05,8.823590258143647e-05,12091,4.464888,-1.359098,-8.315352
-1.0694505118318192,-0.9328715776153954,0.0725615671848793,0.0025258572763506,0.0115365624589729,-0.0112994213858738,-3.517743022475875e-05,1.6569987609763606e-05,0.0001068391925314,12092,5.26693,-2.336702,-10.57035
-1.2025796518527123,-0.6422081864787006,0.1144835170096142,0.0015403415022099,0.01262529299717,-0.0111767649254229,-3.864475472232452e-05,1.8966993346163444e-05,0.0001209920612642,12093,5.157926,-3.047562,-12.303168
-1.206998721277574,-0.2427800460381132,0.1206040009859302,0.0004112870207666,0.0136364344116683,-0.0107598296342208,-4.051144534842454e-05,2.0476905401609997e-05,0.0001296482533558,12094,5.353416,-3.77149,-14.512164
-1.13723998067206,0.0673797037661963,0.0867370197171056,-0.0008103475483399,0.0145624684815171,-0.0100937741413143,-4.085346264860974e-05,2.1159472972284424e-05,0.0001331545637427,12095,5.766574,-4.631263,-16.985288
-1.059936094041721,0.2939643862848953,0.3532844548335297,-0.0020197077259913,0.015405365533855,-0.0092960730210652,-4.0260251048905416e-05,2.1317434893188616e-05,0.0001334173535773,12096,6.062618,-5.467691,-19.77946
-0.9326273915028348,0.4812478943610749,0.9557310398490728,-0.0030588838660536,0.0161733874448573,-0.0085521518212865,-3.935474402516497e-05,2.131708301903346e-05,0.0001326723740246,12097,6.181621,-6.119154,-22.877133
-0.6591145751597849,0.5670779118598767,1.3254199673351812,-0.0038511916554874,0.0168658291112072,-0.0079488565527363,-3.839380356530821e-05,2.136911084680355e-05,0.0001321240873941,12098,6.086742,-6.587769,-25.784428
-0.4012695630201942,0.5971455938082106,1.24441560785718,-0.0044001605217712,0.017474357521992,-0.0074780044944931,-3.7424505140732967e-05,2.150906291936205e-05,0.0001319811006477,12099,5.876094,-6.82158,-28.420079
-0.2790787715278409,0.6831768382068009,1.098772525526812,-0.0047255816935775,0.0179882068632419,-0.0071145897017974,-3.672176348725533e-05,2.180091495396318e-05,0.0001327722519184,12100,5.731838,-6.925076,-30.860974
-0.1507675769620408,0.7751761288497901,1.0613033796586273,-0.0049053163236169,0.0183898547048366,-0.0067667907317618,-3.6549149495734326e-05,2.235034917821202e-05,0.0001352134487188,12101,5.70797,-6.983972,-33.275951
0.0047602202333982,0.7890751190958805,1.0114734820373443,-0.004980903455892,0.0186681907913631,-0.0063985123312802,-3.659378967576374e-05,2.3038186818968483e-05,0.0001384898002174,12102,5.84621,-7.044197,-35.918345
0.0648238685369651,0.7600630323551528,0.9320532042490682,-0.0049561659293913,0.0188188470854766,-0.0060341969910105,-3.626887679513118e-05,2.3517797662625457e-05,0.0001404887477619,12103,6.104331,-7.076885,-38.678173
0.042682178545855,0.7280922825752503,0.7892834513713212,-0.0048829767792862,0.0188341943578525,-0.005655690035014,-3.513328808813137e-05,2.3453063231565583e-05,0.0001392707583509,12104,6.327081,-7.044663,-41.462383
0.0267229646025454,0.6947294690310879,0.574048662547975,-0.0048452181571743,0.0187064559384176,-0.005229154478866,-3.28862600594876e-05,2.271006594913407e-05,0.0001339672585183,12105,6.535311,-6.950199,-44.261689
0.0576118263436949,0.6522273678926889,0.4110843564183745,-0.004879761823169,0.0184361900856405,-0.0047450862119155,-2.9682044332705572e-05,2.1501771255809238e-05,0.0001257051280072,12106,6.89324,-6.703462,-47.295279
0.1326134475258565,0.6092011951131806,0.3499035078004439,-0.004982767207349,0.0180328905606533,-0.0042089641082357,-2.613423452678414e-05,2.018500082437612e-05,0.000116655089828,12107,7.412619,-6.275389,-50.738507
0.1562001111231927,0.5988860720880205,0.3323281143173157,-0.0051368999923431,0.0175149538976498,-0.0036410197575537,-2.275554679261867e-05,1.8939386791397382e-05,0.0001080735775811,12108,7.801601,-5.686628,-54.437464
0.0404626616904907,0.6138013908433586,0.3056993696143377,-0.0052884139829827,0.0169145066033708,-0.0030868952298313,-1.9856071440510054e-05,1.78471989198636e-05,0.0001005936953521,12109,7.752224,-5.085455,-57.644885
-0.1114888313087674,0.649920895595918,0.2958986310048493,-0.0054152170083264,0.0162739563439702,-0.0025706228048164,-1.7739936348472798e-05,1.7037441896951783e-05,9.506300394720004e-05,12110,7.270002,-4.645264,-59.51948
-0.1584311747268438,0.6665118082594167,0.2641443063023673,-0.0055280078545419,0.015651000279894,-0.0020960383005168,-1.668213402015771e-05,1.6649591641479396e-05,9.236469211827586e-05,12111,6.22297,-4.294473,-60.757483
-0.1316187924553887,0.490613604685939,0.0210243233405893,-0.0056172298076884,0.015130878476645,-0.0016794411634117,-1.6865792183802404e-05,1.685531563975188e-05,9.34728235638394e-05,12112,5.138041,-3.960352,-62.603373
-0.1086412542580418,0.119162576210964,-0.3827787716802879,-0.0056680959861519,0.0148342703755858,-0.0013398977114102,-1.8288907808125495e-05,1.7821659905869198e-05,9.919083004758124e-05,12113,5.706025,-3.971705,-65.121693
-0.0928208487223617,-0.1533958433538498,-0.5989680915686163,-0.0056747756925141,0.0148208886219506,-0.0010906248076233,-2.062954172213138e-05,1.94823435963878e-05,0.0001089493842158,12114,6.250145,-3.75619,-67.563363
-0.0825366917828462,-0.1866000192396358,-0.5240864401653428,-0.0056354998129467,0.0150857825342032,-0.0009417840358383,-2.309975259659081e-05,2.1366947748895506e-05,0.0001198830508798,12115,6.271563,-3.399237,-68.728963
-0.0634781129701413,-0.1394898667683571,-0.3947291545183211,-0.0055563097959161,0.015609882276871,-0.0008978490274664,-2.4487068251457127e-05,2.269886722149221e-05,0.0001273349368683,12116,5.915987,-2.736437,-69.779959
-0.0550601762884486,-0.1123187975931949,-0.3453995724679048,-0.0054547397461509,0.0163273501639841,-0.0009550418575311,-2.3792911528466584e-05,2.278985783898862e-05,0.0001272353927626,12117,5.27405,-2.09324,-71.862553
-0.0896167054086467,-0.0848665591879264,-0.3404363227641999,-0.0053388838126849,0.0171840831210765,-0.0011149288785657,-2.0796771604720837e-05,2.1365649486827167e-05,0.0001180996593496,12118,4.581636,-1.748243,-74.758105
0.0461142649193915,-0.0756695274908764,-0.3834054459760626,-0.0052085297592925,0.0181353525918025,-0.0013833418064804,-1.6102982063888655e-05,1.8738179901186117e-05,0.0001018939951237,12119,4.160379,-1.422527,-78.171706
0.5059487707644382,-0.0828074846529095,-0.4508953307475074,-0.0050689960529892,0.0190812199832236,-0.0017607595279653,-1.1291574439160956e-05,1.6017668727727313e-05,8.515832846768648e-05,12120,4.021086,-1.031976,-81.485217
0.8914541740095887,-0.0824724105564639,-0.4712402831174596,-0.0049270478594267,0.0198689529475444,-0.0022443856604148,-8.250228841304973e-06,1.4506547636541414e-05,7.558315893787053e-05,12121,4.031863,-0.613971,-84.45011
0.7988545314641298,-0.0627556147367798,-0.4469304221162908,-0.004806084930132,0.0204453054308481,-0.0028279503070579,-7.5944246290627964e-06,1.4499230704458083e-05,7.505035113621305e-05,12122,4.017854,-0.239577,-87.024818
0.454445470136725,-0.0132768561235395,-0.4099391576903034,-0.0047512481129443,0.0208587823145906,-0.0034993283138053,-8.568884894215303e-06,1.534855014111995e-05,7.987348801432445e-05,12123,4.015487,0.052164,-89.31457
0.260404584636555,0.014641569579545,-0.3829042914689066,-0.0048238944054615,0.0211924546650233,-0.0042399396436034,-1.0196798936728756e-05,1.638464785106242e-05,8.607960571832058e-05,12124,4.078917,0.217951,-91.600121
0.2373814236538438,0.007608173336779,-0.4714766443299333,-0.0051121386951272,0.0216167895560617,-0.0050220698796947,-1.154930151340404e-05,1.7045240040752564e-05,9.025105606436797e-05,12125,4.172621,0.128927,-94.184504
0.2525781792712273,0.0083158094878201,-0.7590156976672467,-0.0056373097590285,0.0222182725146908,-0.005801781684257,-1.1483403660269508e-05,1.6615905704568096e-05,8.809503073299317e-05,12126,4.236831,-0.24397,-97.153627
0.2621548899017164,-0.0452649500529698,-1.081595520755137,-0.0063453693981383,0.0229941803192477,-0.0065136995156163,-8.975798755483852e-06,1.4492417016111783e-05,7.595230238588792e-05,12127,4.278454,-0.724834,-100.227779
