AccX_processed,AccY_processed,AccZ_processed,GyrX_kalman,GyrY_kalman,GyrZ_kalman,MagX_processed,MagY_processed,MagZ_processed,PacketCounter,Roll,Pitch,Yaw
-0.6502073263738773,-0.0619016663092866,0.144453780289032,0.0004111857754382,0.0014799931579266,0.0007885018894748,7.536464430995636e-08,-2.221670796904382e-07,7.564182009059186e-08,11582,71.078064,80.361577,94.464667
-1.946080272134342,-0.2092050987830906,0.4514089996099456,0.0005381209617469,0.0015030226625865,0.0008383374673173,4.4764224022420216e-08,-2.667515106924647e-07,-6.267783254203548e-08,11583,70.552792,80.342077,93.980332
-2.564433713626679,-0.2903300676099138,0.6051649181956879,0.0006783610901884,0.0014749193534922,0.0008844603723552,1.7411692992768313e-08,-2.7640579873612804e-07,-1.6459675421355697e-07,11584,70.292826,80.299616,93.761442
-1.8834925743107616,-0.2481551620506333,0.4689340976711956,0.0007414991394202,0.0013373781554032,0.0009315425142165,-6.692948778999329e-09,-2.5112994382142826e-07,-2.3011494492397266e-07,11585,70.165355,80.261791,93.639924
-1.9133878095505736,-0.2638509110825476,0.4830774676618946,0.0006808858763717,0.0011197378022375,0.0009927271739896,-2.7549701292882744e-08,-1.9092394594836517e-07,-2.5923240467328284e-07,11586,69.98466,80.246956,93.428915
-1.7933812570498828,-0.2492164176744701,0.4524078752438505,0.0005074621126879,0.0009073318987962,0.001061446378163,-5.7665783450427255e-08,-1.1257426908400534e-08,-2.307110975662699e-07,11587,69.80989,80.262213,93.202348
-1.5403785011230264,-0.2213285062413455,0.3870232137869344,0.0002521979891278,0.00071801033195,0.0011169279992339,-5.9403046819445714e-08,9.642196695954196e-08,-1.618991294504437e-07,11588,69.488116,80.281209,92.873202
-1.4570906826638164,-0.2225487167213044,0.3625018829027655,-2.0379570850134364e-06,0.0005340977673635,0.001116324456357,-5.637712193260409e-08,1.5539340264677016e-07,-1.1099558202861857e-07,11589,69.063585,80.269226,92.494714
-1.258868322067101,-0.2181668738027786,0.3163213408997846,-0.0002163292739876,0.0003598126302361,0.0010493841694629,-5.747590101145722e-08,2.2403392806487905e-07,-6.393796575568725e-08,11590,68.733459,80.262471,92.187093
-1.0906239048241746,-0.2077514930009492,0.2763077917352481,-0.0003961302089323,0.0002063388048025,0.0009405638549734,-5.3623612862329826e-08,3.018918643820074e-07,7.846041374554865e-09,11591,68.479307,80.278728,91.903123
-0.951275342195828,-0.1894949642972872,0.2397548442582726,-0.0005170552753347,7.364836127987982e-05,0.0008134379255928,-6.581241493788083e-08,3.694271851773007e-07,1.8755064349201372e-08,11592,68.145344,80.306355,91.527443
-0.7548260712012995,-0.1670449864857055,0.1905102301978803,-0.0005451157790143,-4.223832450754548e-05,0.0007072147646077,-1.1117016895693985e-07,4.190273330179054e-07,-9.665654637548017e-08,11593,67.809438,80.316345,91.149038
-0.5783239409370272,-0.1466817933462219,0.1463296323752737,-0.000465515191939,-0.0001421974504472,0.0006393564739104,-1.505817347074643e-07,4.777686272665255e-07,-1.9337331155762345e-07,11594,67.426935,80.309006,90.708858
-0.3925397705015974,-0.1215735265867059,0.1000303269369713,-0.0002766272972942,-0.0002253030565545,0.0006006153445978,-1.4583448066826246e-07,5.724828852835408e-07,-1.2428269241965898e-07,11595,66.894549,80.347966,90.104582
-0.2041237777590607,-0.1266071422838439,0.056824083435965,9.051834935465972e-06,-0.0002895147950298,0.000584802185665,-1.143123215573935e-07,6.93353718913431e-07,5.403298700388053e-08,11596,66.336692,80.426328,89.516468
-0.0112098439590888,-0.1778757159977279,0.0161267914634848,0.0003560489607681,-0.0003298199642938,0.0005765565333931,-6.90184945271946e-08,8.075628108547899e-07,2.799607308116975e-07,11597,65.901081,80.476165,89.027836
0.1902565834899502,-0.2158744350539011,-0.0267277128949949,0.0007399874189912,-0.0003469270394706,0.0005693373932292,1.191502712215247e-08,8.729035672648767e-07,5.950238726184721e-07,11598,65.717052,80.510016,88.672533
0.3764873462896249,-0.198301234999924,-0.0681325252438286,0.0011445803515177,-0.0003476145672606,0.000568464990931,1.1671844856424565e-07,8.618577791216949e-07,9.387524021495316e-07,11599,65.867383,80.5763,88.585788
0.5464793426747987,-0.1611175261149716,-0.1091188759069934,0.0015344390711853,-0.0003395619969657,0.0005723435431757,1.9762319722506295e-07,7.303328185712161e-07,1.1175924196041348e-06,11600,66.361943,80.646615,88.799431
0.6996958387137593,-0.1394690716355955,-0.1490557583977731,0.001858790103962,-0.0003341795875846,0.0005773697749998,2.511254469012971e-07,4.4353521011457444e-07,1.092256585111777e-06,11601,67.163657,80.674222,89.254836
0.8475680134189347,-0.1209971577439598,-0.1879331128153898,0.0020916875416784,-0.0003371476376789,0.0005822924606214,3.206773243989068e-07,7.224685317542442e-08,1.0628616800027126e-06,11602,68.097483,80.655815,89.86613
1.0011451744029694,-0.0996992872709802,-0.2249148641177608,0.0022310158683019,-0.0003474405850733,0.0005862128441858,4.238707076539531e-07,-3.162428582766956e-07,1.1470937319892204e-06,11603,69.229908,80.591607,90.759213
1.1514326173703515,-0.0773797866947482,-0.2593991883978166,0.0022816872307227,-0.0003637616874714,0.0005900465661138,5.297191042869452e-07,-7.480906562593025e-07,1.2276224478808873e-06,11604,70.830741,80.485435,92.082928
1.2990617691239914,-0.0405991898659934,-0.2982240969741106,0.0022683841550723,-0.0003813242320201,0.0005972640591803,5.999499432285545e-07,-1.1998982318694736e-06,1.1856514538887348e-06,11605,72.948979,80.343798,93.862874
1.4526964003203886,0.0086729697399126,-0.3405795948371972,0.002204106547466,-0.0003960659513533,0.0006079408691005,6.195519537833715e-07,-1.5680792365125243e-06,1.0351573251688505e-06,11606,74.981063,80.131763,95.626447
1.5986309033539787,0.0542893222903788,-0.3768412638743794,0.0020903833049212,-0.0004047282515969,0.0006188365489958,5.994122424858888e-07,-1.819627969416808e-06,8.302318501747561e-07,11607,76.455762,79.854225,96.939484
1.717815973448043,0.0828349836473648,-0.4055530796227825,0.0019452175042068,-0.0003994441211884,0.0006266210831806,5.608193445931352e-07,-2.0121925228633982e-06,5.902230612788744e-07,11608,76.931947,79.560446,97.362886
1.8190538749482288,0.1023710105813891,-0.4308522304986267,0.0017981673459968,-0.0003678801834677,0.0006262101611976,5.07510182808524e-07,-2.10739756756324e-06,3.427478077456428e-07,11609,76.499836,79.361057,96.94386
1.918999667738908,0.2029552881858346,-0.4663018955211721,0.0016628349317645,-0.0003046201654623,0.0006154651588262,4.324082779414469e-07,-1.948369471651341e-06,1.8118356976153915e-07,11610,75.742758,79.362222,96.161292
2.013857794129346,0.4582240050906276,-0.5240227433068436,0.0015390103990993,-0.0002110460815527,0.0005957558828893,3.362242478872045e-07,-1.5179848041558952e-06,1.3991071022551418e-07,11611,74.702709,79.441609,95.079148
2.116309712719855,0.7267502896523267,-0.582945509138469,0.0014229290038758,-9.001482200038759e-05,0.0005686566077878,2.0563647810506037e-07,-9.6721778456913e-07,7.54334708252107e-08,11612,73.329973,79.440877,93.738969
2.241319216996091,0.8188585508362277,-0.6116113475041205,0.0012995374108926,5.059247943706716e-05,0.0005375931725627,1.6690796681023967e-08,-3.925468011451122e-07,-1.6631313166930673e-07,11613,71.800296,79.343995,92.391708
2.35124605189053,0.7862789152750929,-0.6087413398987095,0.0011666017882879,0.0002057611855265,0.0005061547110046,-2.0574954133424609e-07,1.6874793794211193e-07,-5.269445186291155e-07,11614,70.515359,79.213938,91.364123
2.407489687747077,0.767449317070494,-0.5786382915233899,0.001035846257546,0.000373387454553,0.0004781628629784,-3.789801271361235e-07,6.203691449294597e-07,-7.924307807287256e-07,11615,69.86142,79.127742,90.888549
2.4117860169220986,0.7623163512181126,-0.5256105704221373,0.0009153548398398,0.0005469781199956,0.0004603635924658,-4.552071474322457e-07,8.559734686906993e-07,-8.887722393187194e-07,11616,69.699472,79.08757,90.797057
2.3681810842644087,0.7323436998139614,-0.4935484164682266,0.0008160766480555,0.0007168692154777,0.0004626726857639,-4.7349632586433334e-07,9.139328206506372e-07,-9.345804381470248e-07,11617,69.659267,79.058172,90.751569
2.3000456842693118,0.6916156934707296,-0.4998294845653708,0.000744389385146,0.0008782591771702,0.0004901121569661,-4.913725954092054e-07,9.851948397126204e-07,-9.77253597813397e-07,11618,69.694602,79.065547,90.741787
2.262217984581742,0.6495031322695506,-0.4755589081531327,0.0006999011400211,0.0010307550861024,0.0005427707335185,-5.34067044132392e-07,1.1852817126725764e-06,-9.96541834520075e-07,11619,69.947967,79.102943,91.001734
2.259936538348688,0.5798950940590176,-0.3859978553677372,0.0006835129739769,0.0011753631135893,0.0006198260459844,-6.030640130590691e-07,1.4236237626566011e-06,-1.0609141665975915e-06,11620,70.410528,79.151414,91.566998
2.249239102567641,0.4614875842749408,-0.2775602359092394,0.0006945924880194,0.0013169108881591,0.0007170046827842,-6.794362141551528e-07,1.576077298847336e-06,-1.2070744373210689e-06,11621,71.104668,79.231143,92.4002
2.2246086570258865,0.3344580677354308,-0.1745062381910799,0.0007312361499836,0.0014575420588979,0.0008319504736323,-7.397414136133898e-07,1.641184071391996e-06,-1.3565337701742755e-06,11622,72.172161,79.32404,93.538995
2.197223938941901,0.2550389838328465,-0.0884682483675727,0.0007905930551497,0.0015967028814103,0.0009642854740031,-7.841386379029347e-07,1.6656746910394986e-06,-1.4763884217803397e-06,11623,73.298264,79.342666,94.642943
2.153930362160966,0.2132987203842339,-0.0574752453263587,0.0008657099834397,0.0017365881539985,0.0011105234142725,-8.411157888957815e-07,1.6747876829420163e-06,-1.6558935796358649e-06,11624,74.281232,79.338429,95.549473
2.0916689514460653,0.1860694356071265,-0.0683736600026364,0.0009447911324497,0.0018809420111676,0.0012648845407757,-9.327329330966e-07,1.735693626736668e-06,-1.9261642242726626e-06,11625,75.060237,79.400417,96.290716
2.0197349001405023,0.1767582750239304,-0.065344969773136,0.0010225467458525,0.0020313212420293,0.0014241365779009,-1.0381559705249455e-06,1.904314791750801e-06,-2.170016269467923e-06,11626,75.664421,79.465986,96.939563
1.958124209743507,0.1747500324095705,-0.054717116951963,0.0011001460313288,0.0021875526195071,0.0015870891228326,-1.1109466193290272e-06,2.0865904982449506e-06,-2.2928466652390264e-06,11627,76.410428,79.516928,97.729472
1.9253729458326088,0.1850304695234477,-0.0682200879231255,0.0011791202686004,0.0023487494454081,0.0017526148659088,-1.1211873702139814e-06,2.150761751909236e-06,-2.28926691668424e-06,11628,77.333831,79.553896,98.626102
1.903813423544951,0.2235582203768082,-0.0900849832806773,0.0012646662249211,0.0025122819494709,0.0019208162253446,-1.077567973201058e-06,2.110756104727825e-06,-2.1789891594173314e-06,11629,78.349281,79.611876,99.520967
1.8686164850771196,0.2596266986007146,-0.1081578152580799,0.0013580500374713,0.0026774346975639,0.0020884845088459,-1.0152665791375895e-06,2.045299184437527e-06,-2.0198366749623336e-06,11630,79.528811,79.703152,100.473594
1.8041889238415347,0.2628932325898231,-0.1286668972769624,0.0014559728988549,0.0028455060545645,0.0022485097752313,-9.61923903208147e-07,1.961022366224647e-06,-1.8961883697645648e-06,11631,80.720833,79.790736,101.398225
1.723548041517479,0.249207682846522,-0.1519099851562102,0.0015568438860806,0.0030172343600606,0.0023924604840543,-9.277171222104405e-07,1.858433218433524e-06,-1.842529311341158e-06,11632,81.907397,79.880654,102.441539
1.690189512928559,0.2342561366545914,-0.208868469448854,0.0016587330349588,0.0031937483091673,0.0025087066807696,-9.159323132118412e-07,1.8105779617373029e-06,-1.822156319173541e-06,11633,83.201735,79.945987,103.662378
1.711599558085127,0.2146419888335419,-0.3240485371351099,0.001760102347167,0.00337479336363,0.0025907218128451,-9.139026396838254e-07,1.8148078462907068e-06,-1.7990406159688345e-06,11634,84.836001,79.973918,105.161635
1.689039347611604,0.1993175805616476,-0.4335227565407862,0.0018604890177359,0.0035582608985136,0.0026377261847073,-8.87811227555275e-07,1.719401294069614e-06,-1.7696058917872132e-06,11635,86.859227,79.99555,107.00322
1.5727639626398384,0.1890688385346636,-0.4627581452227891,0.001958659731556,0.0037415108115824,0.0026494183034577,-8.156887638067526e-07,1.4394924303769038e-06,-1.7206383565587808e-06,11636,89.373162,80.076729,109.291209
1.4468477980478718,0.1493839627170788,-0.4348251753879184,0.0020529520588761,0.0039205220551078,0.0026287592186319,-6.994187139265621e-07,1.0211727261696315e-06,-1.62470665573585e-06,11637,92.429329,80.188042,112.038631
1.3513724231670072,0.0749945494917854,-0.4084345713007519,0.0021420573190848,0.0040899248914766,0.0025776155458745,-5.357399198575103e-07,4.993742202475004e-07,-1.4437814547063606e-06,11638,95.920237,80.283003,115.116663
1.203048997950894,0.0181539397827105,-0.3961230310419191,0.0022247857962855,0.0042425847342873,0.0024966747878783,-3.2123032936839824e-07,-9.361128640722653e-08,-1.143637176379089e-06,11639,100.00969,80.389864,118.7069
0.9995620347879808,0.0056488538193045,-0.3895737223707948,0.0022999377715405,0.0043681502413171,0.0023904112558214,-7.812591797350825e-08,-6.661022310071263e-07,-7.366432334827489e-07,11640,104.381905,80.51459,122.604896
0.8413435365562287,0.005016024030877,-0.3839436801781029,0.0023664110805198,0.0044521060846368,0.0022667060010284,1.5113039374994098e-07,-1.094134145929999e-06,-2.735552423983599e-07,11641,108.629991,80.596982,126.48554
0.7320483578192263,-0.0044498301937834,-0.3706258248815237,0.0024248886363326,0.0044844549241733,0.0021296415631802,3.322841256045387e-07,-1.286398432045153e-06,2.03533689093256e-07,11642,112.478434,80.636693,130.075811
0.5929916641760385,-0.0078814936914118,-0.3455573226408553,0.0024782139459719,0.0044596091141698,0.0019799778337617,4.577421776325718e-07,-1.2575571662000328e-06,6.536717377296085e-07,11643,115.799362,80.674567,133.198902
0.4320007845492066,-0.0133366066645471,-0.2923852814779566,0.0025310737885853,0.0043711146414582,0.0018186575598745,5.389280921185119e-07,-1.129782845671197e-06,1.012988318912513e-06,11644,118.694163,80.736846,135.929852
0.3242458207275075,-0.0324316607163348,-0.1968650596099252,0.0025910953384836,0.0042138774616154,0.0016450101002665,6.154646009335097e-07,-1.030127915991467e-06,1.3178013199290487e-06,11645,121.415531,80.822266,138.490399
0.2581157223553905,0.0014171151242553,-0.1288649383751894,0.0026577486323861,0.0039776539865901,0.0014628227715276,7.512834345466329e-07,-1.01916728179893e-06,1.7445923078806474e-06,11646,124.365846,80.957103,141.158484
0.1735354627680183,0.1475254539400187,-0.1604887337628143,0.0027212764244914,0.0036457636663039,0.0012812390866528,9.69991448363622e-07,-1.1435606180362327e-06,2.3517788262650965e-06,11647,127.535743,81.1471,143.934293
0.1068245567916864,0.3110475269353042,-0.2360207269910389,0.0027679514068078,0.0031990038257311,0.0011111426978821,1.22592030406735e-06,-1.431214519017936e-06,2.9869556929827058e-06,11648,130.663219,81.321387,146.561246
0.0724857905792368,0.417010877351241,-0.2755560746490508,0.002775464247215,0.0026126016784699,0.0009677120374549,1.4485015782783988e-06,-1.7789696890629776e-06,3.5030358830632725e-06,11649,133.870544,81.291074,148.967004
-0.0680492201357702,0.5170281670615057,-0.2457621134575675,0.002734180188279,0.0018873355481488,0.0008594381743497,1.584897083522244e-06,-1.9820704010332708e-06,3.8587178101390405e-06,11650,137.521174,81.008669,151.589251
-0.3506952820078014,0.5510528385051685,-0.223285423438528,0.0026484487573475,0.0010539830839355,0.0007872755954387,1.6064034730617993e-06,-1.8951793525580792e-06,4.027141964115236e-06,11651,139.485323,80.736725,152.989313
-0.5875483906995589,0.6052268509499388,-0.4760724551509083,0.0025230524961724,0.0001601439768476,0.0007517129185189,1.5024878660249123e-06,-1.52309713353137e-06,3.942034221352612e-06,11652,137.221475,80.863673,150.750129
-0.6907083228075606,1.0627066674467212,-1.0584918514438972,0.0023699868429193,-0.0007148002392764,0.0007491293768379,1.3012099190148392e-06,-9.917842639071373e-07,3.610638193823744e-06,11653,132.847437,81.3596,146.350437
-0.710191819814976,1.7662719797382525,-1.5380177058001372,0.0021967108138426,-0.0015162246363601,0.0007776522274441,1.0722563114873617e-06,-4.620815340056853e-07,3.176883258230601e-06,11654,127.839076,81.826842,141.132581
-0.57894468376989,2.0484913229900577,-1.6578003114211786,0.0020053322237033,-0.0022139801014473,0.0008373838539812,8.654617220826004e-07,-8.175868005718629e-08,2.7253201225184552e-06,11655,123.429713,81.950814,136.540845
-0.3073119829771817,1.8764751226193372,-1.7019533879486968,0.0018045165810993,-0.0027590783426621,0.0009239571814995,6.733242092732048e-07,6.942954831004787e-08,2.1840369062389997e-06,11656,120.639132,81.590508,133.489021
-0.1425354210983961,1.7203091612239696,-1.8110851650523825,0.0016073223065759,-0.0030952318822753,0.0010292470774601,4.70789155751625e-07,5.873205674460713e-08,1.514989498057198e-06,11657,117.948983,81.117396,130.586825
-0.1758425655349294,1.6363416868643863,-1.7815761028536266,0.0014204553770373,-0.0031955160135228,0.0011487683352445,2.552809832657293e-07,4.308398377715329e-08,8.061246864963155e-07,11658,114.546695,80.852677,127.200372
-0.2665766406988373,1.4632049261877191,-1.606317263410785,0.0012451828903937,-0.0030623296747091,0.0012809340399114,4.377277874827026e-08,1.1564442118855875e-07,1.6251870312992962e-07,11659,111.24263,80.750403,123.983205
-0.3810320933002988,1.2489457949388796,-1.4386395850717366,0.0010809871973987,-0.0027219211617662,0.0014235394390135,-1.378955555154614e-07,2.3893547921451443e-07,-3.5720811536564946e-07,11660,108.995058,80.672762,121.728606
-0.5228317786382835,1.0801016637067498,-1.3043666315613014,0.0009224931516987,-0.0022405667657283,0.001575386499494,-2.669310576407641e-07,3.134735352799141e-07,-7.305306435394399e-07,11661,108.231198,80.515976,120.819607
-0.5635088365130235,0.9763013203661336,-1.1763559558701493,0.0007684599898445,-0.0016635789420489,0.0017294682327528,-3.4947592329864106e-07,3.110475595370069e-07,-9.846283175325086e-07,11662,108.821722,80.277015,121.252762
-0.4700871088520297,0.7798616616593623,-1.0135868647582846,0.0006219166112034,-0.0010191254491833,0.0018716750274394,-4.076547961744106e-07,2.644463434405505e-07,-1.1745394454667412e-06,11663,109.897733,79.967254,122.3267
-0.3847519671135487,0.3077626699311547,-0.7765383452445347,0.0004831067349002,-0.0003677982923849,0.0019840907758639,-4.338900347684544e-07,1.408787139621542e-07,-1.309340942130283e-06,11664,110.981673,79.657276,123.55919
-0.3741743575510219,-0.1983469808839557,-0.4849517253337706,0.0003514401219695,0.0002052806461259,0.0020415526845241,-4.09943448871649e-07,-1.012533140872879e-07,-1.3663102102375298e-06,11665,112.473682,79.424457,125.165521
-0.3973554097046251,-0.4015310366455765,-0.154370903278212,0.0002275190112587,0.0006551820132732,0.0020359127110292,-3.485981609124434e-07,-4.1246997617149284e-07,-1.3582351806048915e-06,11666,114.427862,79.302108,127.073776
-0.4192913784722615,-0.3937924593541337,0.2066537420025939,0.0001124583030149,0.0009750801432346,0.0019783329608822,-2.670680464314661e-07,-7.477943520167394e-07,-1.307706262786242e-06,11667,116.360024,79.288776,128.799685
-0.3935415157151314,-0.4069752945475746,0.5217951100097727,8.234597507565374e-06,0.0011708184773002,0.0018865564298176,-1.6370457143785378e-07,-1.0824939676159277e-06,-1.1861186071529286e-06,11668,118.017174,79.372796,130.196194
-0.3057618999116385,-0.4852158434354855,0.7113427674408921,-8.183966532586181e-05,0.001281518691952,0.0017944716381717,-5.6900257820276526e-08,-1.321033817405465e-06,-9.869741729370602e-07,11669,119.295842,79.485268,131.308282
-0.2459119336989719,-0.5861350325501433,0.7856090692459885,-0.0001560904678974,0.0013284076586512,0.0017135552317399,3.099374373076738e-09,-1.387947059127522e-06,-8.262051545270792e-07,11670,120.236507,79.559021,132.176837
-0.279346668394761,-0.6650625786381,0.809921502382262,-0.0002144647220266,0.0013158527444044,0.0016304012971515,5.650229442981582e-09,-1.343196828336105e-06,-7.816030896274877e-07,11671,121.261605,79.584539,133.16907
-0.298554666747558,-0.6943647875539167,0.8225382065869307,-0.0002567696694213,0.001277350461299,0.0015325058064123,1.0145248998399936e-08,-1.3135249597477569e-06,-7.406460420068882e-07,11672,122.450618,79.575594,134.375204
-0.2741361879592793,-0.6860256717605212,0.8543907622443563,-0.0002834736837084,0.0012684014432413,0.0013963271273153,6.177740856620879e-08,-1.383832349518491e-06,-6.038255552327053e-07,11673,123.735772,79.554993,135.713989
-0.4338476147758821,-0.6768771695180702,0.9578897171219792,-0.0002947766885601,0.0013096994133375,0.0012116610592173,1.434499730958512e-07,-1.59663046838743e-06,-4.503061754862203e-07,11674,125.409303,79.527732,137.456165
-0.7965057556970925,-0.7670042171421179,1.0978740181672904,-0.0002905114867365,0.0013895456001213,0.000984723864959,2.26444852017778e-07,-1.956313424387788e-06,-3.811319274273266e-07,11675,127.345552,79.437401,139.518254
-1.0171159608917018,-1.038422451811733,1.1765904501369169,-0.0002712999871907,0.001486076361362,0.0007172258863491,3.041470543028111e-07,-2.337254450535221e-06,-3.4685805766823585e-07,11676,129.436728,79.113533,141.717029
-0.9691470181488592,-1.3483992614871982,1.2050901821166748,-0.0002384320596938,0.0015496931434688,0.0004136770779975,3.814681907546031e-07,-2.5576798785361923e-06,-2.245430662506588e-07,11677,131.49562,78.770549,143.905877
-0.882507339663283,-1.491694545384316,1.2557504789958869,-0.0001942824923126,0.0015479042624457,7.086227143815699e-05,4.708316996320077e-07,-2.627377630600332e-06,1.3480993629338276e-08,11678,132.919121,78.733756,145.622871
-0.8604915872169573,-1.524734039312525,1.3259193496291728,-0.0001427973779485,0.0014650124537897,-0.0003254015807591,5.949900930291769e-07,-2.7135786174060028e-06,3.347900886787956e-07,11679,134.192938,79.06928,147.141533
-0.8245289894543433,-1.5743431737315914,1.3736502988048438,-8.96876080411373e-05,0.0012630778153973,-0.0007906779379881,7.67144202210893e-07,-2.9026891505545e-06,7.416247049231381e-07,11680,136.340736,79.470537,149.15172
-0.78209873893537,-1.6438938962245246,1.3760348485229628,-4.31936309133513e-05,0.0008892155903549,-0.0013467533451651,9.630532200829545e-07,-3.1785487827111387e-06,1.1874096949674138e-06,11681,138.543516,79.66357,151.120588
-0.7525727993905644,-1.7907166339490654,1.3240111194496822,-7.503274296858487e-06,0.0003325222218664,-0.0020015927062725,1.1300514486020882e-06,-3.515906350955832e-06,1.520966530873172e-06,11682,139.749561,79.602927,152.100849
-0.713683983334198,-2.0031192645568545,1.2461122281519437,1.7526359922447262e-05,-0.0003746684827092,-0.0027467672572435,1.2176121335076483e-06,-3.841621222910915e-06,1.6105397557005771e-06,11683,139.663824,79.541786,151.741237
-0.6796478996751427,-2.0740517179682234,1.1861976755950423,3.2682422450626804e-05,-0.0011746967270321,-0.0035697464280807,1.1984056884487525e-06,-3.995881817399574e-06,1.4577519628658924e-06,11684,137.96462,79.691817,149.81174
-0.6515338786738482,-1.948966621144895,1.1423782211070208,4.1561845121666886e-05,-0.0019616728633903,-0.0044459878681285,1.0758395241425547e-06,-3.867851062849523e-06,1.1339287928667717e-06,11685,134.512194,80.051256,146.262294
-0.5951276711644397,-1.8210844590324544,1.0391442837322449,4.652681030316647e-05,-0.0026705724072624,-0.0053478669576848,8.653819361031315e-07,-3.4804525993029435e-06,6.69191142089384e-07,11686,129.802596,80.477683,141.503045
-0.4994196953935365,-1.7570926878187718,0.801083368008364,4.86709359355449e-05,-0.003277048051537,-0.0062428218667721,5.814984329422321e-07,-2.869113322686566e-06,9.991759011610625e-08,11687,123.758749,80.883898,135.356745
-0.4322880885776177,-1.6578056720141534,0.544300144704463,5.197705867838719e-05,-0.0037313932467596,-0.0070784014905343,2.620604998765564e-07,-2.076542141077116e-06,-4.660792154484441e-07,11688,116.460077,81.224541,127.934614
-0.4047830401282579,-1.5204842040279902,0.4302584440692056,6.283779068172377e-05,-0.0039778227577511,-0.0077792236555664,-2.37756033263864e-08,-1.2568772156732703e-06,-9.064228880483492e-07,11689,108.412484,81.4927,119.783619
-0.2641595302699919,-1.3899398854955949,0.3605092263011222,8.484485746061669e-05,-0.0039994742762944,-0.0083026884581668,-2.173984633074699e-07,-5.381254623637486e-07,-1.11512542230874e-06,11690,100.050278,81.696101,111.282155
0.0306024323440286,-1.263916957635042,0.2201908322665052,0.0001191696463537,-0.0038181949622226,-0.008639243772363,-3.155867222338957e-07,1.4219585474842578e-07,-1.0275988253031226e-06,11691,91.949162,81.815157,102.908338
0.2808098059519878,-1.1298335688604078,0.109058860215424,0.0001669318275354,-0.0034929847551556,-0.0087829057023589,-3.6836443804182797e-07,9.113958533580644e-07,-7.115206605440879e-07,11692,84.384897,81.860768,94.872944
0.3625480389336195,-0.9740834231088918,0.0764124412329549,0.0002278726045026,-0.0031416664254821,-0.0087481634878864,-4.3517029176850854e-07,1.7760896522788932e-06,-3.67756679678122e-07,11693,76.73811,81.899498,86.688944
0.3772790679095003,-0.8200320356999876,0.0447952560783133,0.0003048453403486,-0.0028107334276937,-0.0085317815835206,-5.583975559361098e-07,2.690205932349104e-06,-1.8272658251081178e-07,11694,68.203814,81.836987,77.870182
0.4209639640117203,-0.7025681728056252,0.0065208018054582,0.0004043782914215,-0.0024734013111442,-0.0081105782834087,-7.567712066929522e-07,3.702621470314754e-06,-1.8261928541419507e-07,11695,59.659734,81.475735,69.303188
0.4612936862467628,-0.603631174942967,-0.0016601489633661,0.0005338961839753,-0.0021109995761379,-0.0074744354707108,-1.0051549149915063e-06,4.822938054958367e-06,-2.732977013896033e-07,11696,52.627938,80.916614,62.236321
0.4527580299046523,-0.4769157042239201,-0.0013912864450568,0.000703469474277,-0.0016768744863637,-0.0066175156503171,-1.2522206495940726e-06,5.884805723679406e-06,-4.046421600978821e-07,11697,47.294354,80.293573,56.829599
0.3977780036682849,-0.3178637887676173,-0.0109913456380658,0.0009156133885434,-0.0011609129077824,-0.0055400357865485,-1.466894159277411e-06,6.720452865511188e-06,-5.861099850563272e-07,11698,43.174536,79.71985,52.715154
0.3508057568217692,-0.1728150696605488,-0.0162342561440015,0.001164009480093,-0.0005994281748602,-0.0042539300225143,-1.6337080521926457e-06,7.278368294624424e-06,-7.852577168641596e-07,11699,40.063027,79.251133,49.684781
0.3316892524713233,-0.0715362208197735,-0.0322344573612027,0.0014388303792071,-1.7995976403977886e-05,-0.0027786864591872,-1.7313781881658356e-06,7.543698699989407e-06,-9.304169899143448e-07,11700,38.124246,78.877089,47.737357
0.229676927033099,0.010758912384453,-0.0577282688788629,0.0017223974154252,0.0005481815459825,-0.0011462662448429,-1.7405666093810626e-06,7.505013590334843e-06,-9.725307068641966e-07,11701,37.660428,78.671022,47.055272
-0.0277838750860211,0.1083919706989187,-0.0148181008620559,0.0019929935874849,0.0010745281870012,0.0005866011634252,-1.6541669056421212e-06,7.1797111815331885e-06,-8.892191800114263e-07,11702,38.591432,78.692896,47.624268
-0.3557288458599185,0.2134703062281633,0.1286374843197451,0.0022229520417737,0.0015534935209762,0.0023313587268044,-1.4797390873598605e-06,6.605796846347728e-06,-6.807926057870052e-07,11703,40.319579,78.893817,48.993407
-0.6475336094439446,0.2987226428438801,0.2681680777655863,0.0023700008703646,0.0019688841719279,0.0039593305425209,-1.2438235090120428e-06,5.814902174112611e-06,-4.116268298869454e-07,11704,42.827855,79.19705,51.123361
-0.8390061536771578,0.3593679383014575,0.3148954258112844,0.0023739903898152,0.002302586487005,0.0052854305961105,-9.87837966039356e-07,4.843921331321296e-06,-1.956171137446694e-07,11705,46.192258,79.489394,54.10113
-0.8878260952590673,0.4430307984847945,0.316814730720516,0.0022065021423068,0.0025428938256883,0.0062166695391192,-7.283954859009884e-07,3.7322933653822416e-06,-5.687555148967102e-08,11706,50.627518,79.73044,58.284496
-0.8274023457099934,0.5835095467805694,0.320832980934438,0.001872635726106,0.0026825504956753,0.0067581889526191,-4.2954090505989044e-07,2.487093139660932e-06,1.3425126674187049e-07,11707,55.973384,80.036313,63.49068
-0.7641147901649545,0.6815112966594875,0.310178172406286,0.0013858301119279,0.0027209555818307,0.0069316290221161,-7.100327817074463e-08,1.1678305235179883e-06,4.829206933737111e-07,11708,61.798223,80.468946,69.111955
-0.7662240566477325,0.742440005958435,0.2973797772762511,0.0007848627817623,0.0026671864553815,0.0068243117727309,2.818980022858728e-07,-6.461839862801908e-09,9.115880347584392e-07,11709,67.500167,80.930387,74.435493
-0.8185869090109752,1.011110921923915,0.2779233787128333,0.0001039599646265,0.0025339823455105,0.0065000995089079,5.357878720083457e-07,-7.872122107448066e-07,1.2677162950643113e-06,11710,72.571978,81.278482,78.963919
-0.8104578025648944,1.4419546658314766,0.2431099852773342,-0.000625326573237,0.0023408504842082,0.0060001672622059,6.493386061497915e-07,-1.1210420408092082e-06,1.442534166674356e-06,11711,75.513674,81.474677,81.696654
-0.6502123249232041,1.6621340856783664,0.2722096601416939,-0.0013400740579476,0.0021230334577404,0.0054378066477531,6.307765755752273e-07,-1.1593449769334546e-06,1.3553554571112725e-06,11712,76.162818,81.493118,82.894085
-0.4698678412024762,1.6529583214871493,0.4007472069286116,-0.0019461580809847,0.0019349986611048,0.0049905740360474,5.219262267910829e-07,-1.0835486572826137e-06,1.0208857393620895e-06,11713,76.416597,81.451052,84.098335
-0.3892954395581247,1.664314538955949,0.4830515263950883,-0.0023968224046164,0.0018032578970232,0.0047409607843426,4.011074789300352e-07,-1.0081939257473749e-06,6.32242379919674e-07,11714,77.572976,81.482255,86.003441
-0.3047925780583185,1.679225270659848,0.3702560943034899,-0.0026921438819613,0.0017256358150986,0.0046806757963462,3.452781414427069e-07,-1.0073065813951448e-06,4.121150583953044e-07,11715,79.724805,81.599407,88.571775
-0.1860788254033586,1.597726311648251,0.1497996221101448,-0.0028412360684399,0.001696938221578,0.0047824009995124,3.4883221221457304e-07,-1.0893910061304669e-06,3.475643668431785e-07,11716,82.100023,81.72731,91.242177
-0.042739454017211,1.4687291117597123,0.0084446486564387,-0.0028866278077685,0.0016943919351421,0.0049516720312101,3.325845415793608e-07,-1.1793254072206286e-06,2.2980652565530125e-07,11717,84.137979,81.764963,93.721781
0.2536086204982883,1.2970544504395898,-0.0151605982255079,-0.0028488088236555,0.0017097127974175,0.0051454615116524,2.636082937534011e-07,-1.216271896640108e-06,-1.0605692274014125e-08,11718,85.860099,81.711963,96.119694
0.6198349788896527,1.1113743971274046,0.0059485783003606,-0.0027250945892755,0.0017509160521053,0.0053753632055536,1.766903734451157e-07,-1.2030560673329514e-06,-2.6292368013937205e-07,11719,87.561834,81.645021,98.605641
0.752042234320441,1.017800003352409,0.0178614427735197,-0.0025394869560164,0.0018140587798361,0.0056066119558052,9.636579802035219e-08,-1.1785656268755634e-06,-4.777560317680716e-07,11720,89.624694,81.583667,101.393379
0.6510629919745601,0.95548579777206,0.0177197905376227,-0.0023327357423098,0.0018903555790364,0.0057822184760715,3.3782890103935333e-08,-1.2010717671907328e-06,-6.709218957157822e-07,11721,92.184073,81.557271,104.560099
0.55788938324482,0.7953255382937885,0.0036935248607701,-0.0021227951169919,0.0019742474740248,0.005874153891855,1.4767307765405593e-08,-1.3079177160400864e-06,-7.91973263746684e-07,11722,95.178171,81.514567,108.067786
0.5107422288883169,0.5781989224223398,-0.0240007598255892,-0.0019090187214237,0.0020600136452401,0.0058738198293309,5.7190237138923724e-08,-1.4938672306029485e-06,-7.699843995588503e-07,11723,98.309602,81.421871,111.65069
0.4478746766473472,0.399463121287512,-0.0275754175434254,-0.0016848579853716,0.0021419928255686,0.0057831402525766,1.4463867521494148e-07,-1.749560507167218e-06,-6.405056737922411e-07,11724,101.566594,81.307243,115.305936
0.387114737646517,0.255071405647473,0.0250026209697507,-0.0014270767474897,0.002215340777573,0.0056273281192498,2.556868805662605e-07,-2.1004161630138635e-06,-4.881283739328658e-07,11725,105.27188,81.200212,119.336194
0.3071039601215973,0.0887668022033179,0.1473921161086558,-0.0011322483904618,0.0022630747457346,0.0053984646914281,4.0622640540247966e-07,-2.5827894731644022e-06,-2.831067329381214e-07,11726,109.657052,81.034286,123.920572
0.1617682565405002,-0.1232468970802122,0.3448196747995502,-0.000818324685398,0.0022539388726304,0.0050532432965197,6.119908314040152e-07,-3.189692643591519e-06,2.8320740092814237e-08,11727,114.43746,80.804972,128.789151
-0.0630447222755213,-0.3537173323420029,0.5597437670533204,-0.0004989762609671,0.0021461988711402,0.0045481375948664,8.454619172240991e-07,-3.860744420367868e-06,3.834287100056876e-07,11728,118.970297,80.534185,133.384054
-0.3925139451885628,-0.5494482855031129,0.6892091062146093,-0.0001936562630694,0.0018804918665824,0.0038223107670277,1.071464433735188e-06,-4.501820088361284e-06,7.19931335976238e-07,11729,122.860194,80.225152,137.338582
-0.8395606841687352,-0.6758725067817748,0.7097392197064384,8.713596660884734e-05,0.0014285702902764,0.0028468897295563,1.2783563711150429e-06,-5.0451152268552095e-06,1.0481645416660686e-06,11730,125.977411,79.926176,140.539292
-1.287657388059857,-0.7506660128193042,0.6895299001167537,0.0003451816461575,0.0007963303996011,0.0016315322838748,1.479963503431106e-06,-5.525362479421692e-06,1.3987433863824702e-06,11731,128.192121,79.668482,142.895744
-1.4969508341402396,-0.8163136876462527,0.652066177572364,0.0005805058532546,-3.65948459137835e-06,0.0001902673626308,1.7051578639809515e-06,-6.033731259580608e-06,1.808616864769812e-06,11732,129.720918,79.551089,144.538964
-1.4380630694434071,-0.8654019012509458,0.5746202790946391,0.0007966961328162,-0.0009352384945293,-0.0014403704453267,1.9421582495042026e-06,-6.5407913200323854e-06,2.2607674091040176e-06,11733,131.10119,79.600277,145.821524
-1.388259107576473,-0.8612859034488319,0.5116094752402426,0.0009982537377231,-0.0019650277208718,-0.0032192375496197,2.1075548059823043e-06,-6.834480773125141e-06,2.625035860884628e-06,11734,132.732808,79.605956,146.962008
-1.468850772938847,-0.8146483395742441,0.4633973499167997,0.0011899768571458,-0.0030608543760068,-0.0050985686594723,2.119955451529194e-06,-6.729816011562788e-06,2.7428233004098763e-06,11735,133.231237,79.547416,146.888316
-1.5107167517858282,-0.7602391817085334,0.2327146084337098,0.001383729278498,-0.0041595042798647,-0.0069932163675663,1.976535721712702e-06,-6.218748314476252e-06,2.5852778451506283e-06,11736,130.10652,79.68825,143.600272
-1.4322781214665437,-0.7085550149286098,-0.2575827669185261,0.0015990658250242,-0.005166116166903,-0.0087759407192551,1.7225214962909614e-06,-5.3525121390586775e-06,2.2657621082188222e-06,11737,122.986435,80.20469,136.840725
-1.2672287206408568,-0.6260366700208022,-0.7395947626728132,0.001841482978875,-0.0060306524400681,-0.0103717986440291,1.4014325837482689e-06,-4.198645488764962e-06,1.905069433934104e-06,11738,113.398185,80.95949,127.486574
-0.9708937152530008,-0.4354074238223846,-0.965109763611372,0.0021019250534601,-0.0067469341856838,-0.0117566467946405,1.0734734371680836e-06,-2.946859032506071e-06,1.5941859600884038e-06,11739,102.355219,81.643399,116.112046
-0.6118226812201629,-0.126555762357808,-0.996166096024668,0.0023670023674316,-0.0073146169694526,-0.0129057441955622,7.985569858004601e-07,-1.8390948012132196e-06,1.3817549164926454e-06,11740,91.024851,81.926679,103.863787
-0.3590554042876535,0.136609436595182,-1.003482520570015,0.0026115215337502,-0.0077620036186872,-0.0138199021547357,5.528055308126749e-07,-9.181556866534214e-07,1.1704963987131796e-06,11741,79.863569,81.61986,91.707205
-0.1055466159980201,0.2040916564215567,-1.1009490253601184,0.0028174148973191,-0.0080909145919599,-0.0144822750019181,2.420617555618987e-07,5.877265756596287e-09,7.714828890653717e-07,11742,69.583221,80.812631,80.77692
0.2980052847942895,0.1635081737371669,-1.3138585105792977,0.0029737197879116,-0.0082736191575434,-0.0148550693941295,-1.7675236868162587e-07,1.0684522806565934e-06,1.088597123556263e-07,11743,60.555588,79.709954,71.409774
0.6475666562037987,0.1537818631249633,-1.495140279996782,0.0030598339856386,-0.008298704612818,-0.0149228775952535,-6.529967244941958e-07,2.2025325365951397e-06,-7.180881761572365e-07,11744,52.980925,78.463095,63.579604
0.7362432923931987,0.1726397419269643,-1.4952239822153257,0.0030486028416656,-0.0081578673334088,-0.0146842336060745,-1.1129253326510945e-06,3.3121298196795287e-06,-1.5286282963357338e-06,11745,46.89273,77.177522,57.257507
0.6779354784862792,0.1881474500804737,-1.3764009809237012,0.0029260258153276,-0.0078488424404764,-0.0141291148032811,-1.510115756012759e-06,4.390091766820001e-06,-2.1522704197606043e-06,11746,42.20405,75.932873,52.310247
0.6262388749453912,0.1767258680814952,-1.276321137048341,0.0026907891830688,-0.0073821878173327,-0.0132448542120897,-1.816295168529408e-06,5.400990938876951e-06,-2.5016788069073782e-06,11747,38.756193,74.725493,48.465088
0.5797237838302143,0.1613581971510378,-1.2027549470519756,0.0023476599535883,-0.0067730456649987,-0.0120237651714495,-2.021611282183391e-06,6.214285922933635e-06,-2.6284692244481326e-06,11748,36.377343,73.565032,45.507633
0.5381988170349584,0.2604214459963435,-1.0726592933770274,0.0019143595313175,-0.0060461988341376,-0.0104606389818021,-2.1537552825539297e-06,6.779816166325027e-06,-2.663443143782177e-06,11749,34.744231,72.542361,43.215109
0.5017113631093966,0.4522917112509235,-0.885499738418458,0.0014073245948986,-0.0052166790298703,-0.0085812359746432,-2.2712720390482026e-06,7.242042234333807e-06,-2.7128623974815405e-06,11750,33.474961,71.740098,41.408314
0.4188663438568904,0.554118466501937,-0.7251860686856642,0.0008435763267064,-0.0042887523089661,-0.0064496731992443,-2.424761500337034e-06,7.738670412218381e-06,-2.862538043015756e-06,11751,32.361883,71.122045,40.10961
0.2954982646179983,0.5557785679587015,-0.6059159165740382,0.0002564648701982,-0.0032706113499249,-0.0041618396904169,-2.6168640098172437e-06,8.213050035572491e-06,-3.1696067369002944e-06,11752,31.417989,70.622945,39.409536
0.2011567242510406,0.5772199751535984,-0.4580291011625739,-0.0003036222794475,-0.002169250425607,-0.001864456804012,-2.79888315627492e-06,8.532548045838094e-06,-3.5644347619448173e-06,11753,30.636233,70.281983,39.207922
0.1709544800607264,0.591887112366132,-0.2879895740558385,-0.0008112447911375,-0.0009976096700788,0.0003597372163887,-2.907796403958973e-06,8.640262786837655e-06,-3.867100729852969e-06,11754,30.32521,70.181612,39.491622
0.1458529939071619,0.5488213171913563,-0.1622236216213991,-0.0012657511313159,0.0002229686942814,0.0024950671169555,-2.905780528692831e-06,8.493135665119822e-06,-3.969150358450701e-06,11755,30.686128,70.42023,40.218714
0.0912388938609804,0.5064904960334561,-0.0449898020897389,-0.0016702156534391,0.0014688633012129,0.0045209573058189,-2.7820901112524457e-06,7.993134230653346e-06,-3.8946446853158376e-06,11756,31.485964,70.987162,41.198534
0.014049986555403,0.4441441103282953,0.1174750829588234,-0.0020442672493617,0.0027104627208634,0.0064450198028729,-2.532454560330404e-06,7.093784635610887e-06,-3.6619096756754098e-06,11757,32.986066,71.783898,42.814325
-0.201929766257966,0.3262829362804469,0.2684879537436978,-0.0023941394445379,0.0039111754069468,0.0082325355084889,-2.1681781231472696e-06,5.885861521882458e-06,-3.2547301311249133e-06,11758,35.73557,72.705212,45.760852
-0.5797316107964205,0.2800570974194404,0.3213840238945731,-0.0027113651079471,0.0050254687912652,0.0097964496615983,-1.7248742784799791e-06,4.522550498566074e-06,-2.6939104330351483e-06,11759,39.478193,73.847635,49.79645
-0.8594076073475038,0.3407175742734707,0.3172004208375696,-0.0029986193929179,0.0059927990903739,0.0110542912673682,-1.242751143946438e-06,3.1559897220212628e-06,-2.009180785009623e-06,11760,43.479221,75.247156,54.216694
-0.8733670312896734,0.3329106216435893,0.4069889124662539,-0.0032632514145706,0.0067328606649066,0.0119045609844701,-7.640879818140292e-07,1.917650820818783e-06,-1.2546073053127423e-06,11761,47.717151,76.76868,58.857349
-0.7514846622654111,0.1903513875341413,0.5897568558740672,-0.0035058773768874,0.0072081201898118,0.012316268550194,-3.3150052682906306e-07,8.790727659464051e-07,-5.323525933629615e-07,11762,52.365965,78.152676,63.659823
-0.5783846139474293,0.0238977785936223,0.7078719089810592,-0.0037227547647449,0.0074277224811528,0.0123454542830526,2.445444394707844e-08,7.397001592641127e-08,8.210848861072979e-08,11763,56.891688,79.197137,68.27132
-0.2940949374554799,-0.1215213847000936,0.7434847479227649,-0.0039067902978703,0.0074170137121704,0.0120846740545253,2.9100974444709706e-07,-5.004671965768074e-07,5.598059080562614e-07,11764,60.680108,79.905846,72.504893
0.005589027153682,-0.2517748880361373,0.8030454073473875,-0.0040445733327317,0.0072410831459514,0.0117049476752523,4.871242086716432e-07,-9.393008910196818e-07,9.044995535061228e-07,11765,64.846868,80.468323,77.430518
0.1483480826477241,-0.2924805705594596,0.8668287534073258,-0.0041291319605753,0.0069417158584451,0.0112868667138118,6.538107475654442e-07,-1.3755818172824463e-06,1.1556114761770823e-06,11766,70.539385,81.006626,83.894973
0.1458584428502549,-0.2176847823907615,0.8493641769103295,-0.0041598938754381,0.0065379324546128,0.0108133027166168,8.251460416048503e-07,-1.8554873598401365e-06,1.3957676512352752e-06,11767,77.604937,81.476552,91.613782
0.1113375627363002,-0.1265334031724753,0.7898213724277034,-0.0041340927051983,0.0060813766022874,0.0102876896793172,1.0103429139828776e-06,-2.3297765777962984e-06,1.6990847892693232e-06,11768,85.279613,81.816514,99.880772
0.1325048274823206,-0.0857176275711247,0.7316572854453731,-0.0040498417572211,0.0056463488533857,0.0096872523158019,1.181909110950132e-06,-2.786108046408447e-06,1.979190382783088e-06,11769,92.619104,81.977876,107.778421
0.2444982169130446,-0.0861831743288149,0.6323634614438083,-0.0039059464260284,0.0052709113593117,0.0090171773344322,1.3067350125248964e-06,-3.256649716826485e-06,2.0899520733198595e-06,11770,98.975352,81.979046,114.58999
0.3974570474107204,-0.1193315497904736,0.5185495027317626,-0.0037013294674139,0.0049600855544338,0.0083230519491847,1.3786042797406282e-06,-3.651710787687025e-06,2.074485930479744e-06,11771,104.242643,81.909078,120.288294
0.4821051650967723,-0.1712029758313461,0.4839712990919615,-0.0034376670987439,0.004706933490665,0.0076292997291703,1.401213069768898e-06,-3.835962278655098e-06,2.047819906895806e-06,11772,108.581168,81.808494,125.145061
0.4649202805152257,-0.2110477747727455,0.5287725829053811,-0.0031197338140849,0.004474319343618,0.0069552949876334,1.3842053581239558e-06,-3.8476475055873564e-06,2.012418999728493e-06,11773,111.92733,81.685518,129.067013
0.4178530376764601,-0.2091424027212733,0.5584718686327186,-0.0027542047103979,0.0042428168586112,0.006304605699054,1.3526487787727762e-06,-3.832458655787846e-06,1.942246093993425e-06,11774,114.679076,81.582327,132.380791
0.3769201505426188,-0.1818587029627503,0.5301948866433439,-0.0023510009801402,0.0040098231497301,0.0056538265223468,1.3454682107265285e-06,-3.89617648075076e-06,1.887561919677628e-06,11775,117.46573,81.442812,135.692819
0.3390885576387634,-0.2222143127153958,0.480265259825673,-0.0019255671783179,0.0037479429467329,0.0049647032551148,1.4015434959442266e-06,-4.0880362510093495e-06,1.942159687141276e-06,11776,120.927875,81.271029,139.539791
0.3199215789326002,-0.4101779182134781,0.4550389615274964,-0.0015004725206266,0.0034122795966913,0.0041722890424466,1.5266452344202985e-06,-4.392148147819338e-06,2.1394970773927348e-06,11777,124.548817,81.053719,143.355267
0.2533595729851656,-0.6875107793502772,0.5203188618362116,-0.001088147768209,0.0029700714732993,0.0032468346888804,1.6904119574602733e-06,-4.725733448637355e-06,2.4420968436571806e-06,11778,128.066819,80.826726,146.929801
-0.0193626786430288,-0.8912007701494007,0.6759629458214268,-0.0006905434704247,0.0023950878541369,0.0021968103070327,1.8648150030206803e-06,-4.998063723430311e-06,2.829401663482001e-06,11779,131.289248,80.675395,150.149747
-0.5172703783275463,-0.9577396313195864,0.7880086571812809,-0.0003088206490934,0.0016548824566225,0.0010285246009193,2.05379498881558e-06,-5.223015614618732e-06,3.3151007166092355e-06,11780,133.828424,80.624062,152.658449
-1.0210839794593654,-0.9699724180368862,0.7747799424942146,6.193693418360315e-05,0.0007152208854758,-0.0002352386077866,2.2766472527825545e-06,-5.548081401800837e-06,3.866511379561107e-06,11781,135.046482,80.630366,153.816826
-1.3553474080183316,-0.9741440017856376,0.6865375539790952,0.0004210193550908,-0.0004243710394368,-0.001595005281414,2.516168857617881e-06,-6.08106314832435e-06,4.345319599006063e-06,11782,135.725972,80.633324,154.287275
-1.5456580987298778,-0.940907574526413,0.6150336291762517,0.0007612534079066,-0.0017252167226711,-0.0030800224212075,2.701095293900148e-06,-6.708743505070913e-06,4.572688642753699e-06,11783,137.262511,80.493878,155.262466
-1.6095668977844038,-0.8642985718651786,0.5948428680602944,0.0010791093199669,-0.0031169457261056,-0.0047156613392002,2.7393357833174244e-06,-7.120629089841429e-06,4.435798888775891e-06,11784,138.329126,80.30288,155.710385
-1.539196705638797,-0.7832091319975505,0.4260416331367442,0.0013718499564317,-0.004477227251297,-0.0065363351284,2.555812622973101e-06,-6.9793639575619226e-06,3.904837012698252e-06,11785,135.108929,80.412347,152.213487
-1.4228226572245295,-0.7337497763108471,-0.1041352367033141,0.0016360069958092,-0.0057394703507741,-0.0085109103640386,2.1389291550600554e-06,-6.141302981200693e-06,3.038987662083777e-06,11786,125.608787,80.994395,142.849392
-1.2867347662941917,-0.6503581027681336,-0.7209702708826637,0.0018684842824376,-0.0068938936068841,-0.0105277566822174,1.5897373319492146e-06,-4.811899606015803e-06,2.048226589308115e-06,11787,111.132005,81.728928,128.522745
-1.0707120904589749,-0.4086825629067246,-0.9952282973423692,0.0020653612182764,-0.0079159804190496,-0.0124279039506033,1.0845090213841294e-06,-3.4209396103106405e-06,1.2487832204826732e-06,11788,94.051808,82.101468,111.173705
-0.8030013467156532,-0.0754493055756746,-1.0105941781576708,0.002221770641418,-0.0087942327644552,-0.0139655279437113,7.388209070297103e-07,-2.283879250769502e-06,8.286690022547225e-07,11789,78.68422,81.810064,95.013312
-0.5455560401705587,0.1350729744747135,-1.066245349522028,0.0023351522634346,-0.0095150168901517,-0.0150304664949975,5.228496184752273e-07,-1.4161097032595212e-06,6.807770377806909e-07,11790,68.130584,81.008328,83.228372
-0.2911364564676505,0.2150323431091703,-1.156592232776234,0.0024053532731817,-0.0100575305676064,-0.0156610655181996,3.16406699061794e-07,-6.307918854913618e-07,5.200878582386214e-07,11791,60.643364,79.97878,74.378347
0.0687076082169433,0.3033859354255176,-1.1763881589892704,0.0024333191169209,-0.0104242434367304,-0.0159096031347055,7.317800863001962e-09,2.877567430153377e-07,1.0558411241937529e-07,11792,53.663929,78.761307,66.517543
0.6189194987715774,0.3855843392773985,-1.1479194120203782,0.0024223206661068,-0.0106398564885657,-0.0159151630408958,-4.5919022810858253e-07,1.490579168662307e-06,-6.468343235597904e-07,11793,47.162703,77.265927,59.853671
1.1324124096915154,0.4313965823420124,-1.1039947661571126,0.0023734137226555,-0.0107025243603413,-0.0157137797515715,-1.054335116669448e-06,2.966470929281357e-06,-1.637043134429166e-06,11794,41.768845,75.562384,54.626874
1.2871428933249365,0.5273537122110645,-1.0618073851623575,0.0022853426947067,-0.0105866223778376,-0.0152218898435201,-1.6675755491816954e-06,4.480020799657291e-06,-2.641852602485851e-06,11795,37.812329,73.773564,50.681051
1.1687035847774472,0.6554562784766149,-1.0395366249895586,0.0021578664677735,-0.0102665497813253,-0.0143853658351551,-2.185953841637859e-06,5.751532699456272e-06,-3.474403755667451e-06,11796,35.172761,72.045603,47.7819
1.0616344700540266,0.6996947195242303,-1.016801910426503,0.0019906599994226,-0.0097041205930792,-0.0131247185500528,-2.5832996985713566e-06,6.707073161395733e-06,-4.102970741698467e-06,11797,33.434969,70.5467,45.598554
1.013439997834198,0.6639184159861599,-0.9752366530152567,0.0017862843531582,-0.0088853185894772,-0.0114315954105082,-2.9119414988405747e-06,7.452091030878623e-06,-4.637235774120365e-06,11798,32.20085,69.290282,43.923746
0.9609872969067784,0.6317607774269796,-0.9120297627452552,0.0015510988064572,-0.007824878225621,-0.0093937882659412,-3.215168037921025e-06,8.057635425075693e-06,-5.191603080208665e-06,11799,31.400912,68.210183,42.830212
0.8489510650404168,0.6264777072594607,-0.8188311230486358,0.0012937154053907,-0.0065415899656252,-0.0071172205020609,-3.479007751126146e-06,8.508776571234693e-06,-5.745802363198589e-06,11800,31.113215,67.284964,42.372088
0.6040725271191872,0.6497759655634092,-0.7079667859502837,0.0010268032778908,-0.0050718260313294,-0.0047693952306084,-3.670521105540616e-06,8.81459626668602e-06,-6.17878733136109e-06,11801,31.158183,66.59156,42.315531
0.3406858718572483,0.7244790042371294,-0.6125235441232616,0.000757729941331,-0.0034382358301677,-0.002438166088711,-3.7707503858186746e-06,8.977806653974772e-06,-6.410529731450233e-06,11802,31.241134,66.204367,42.384225
0.2451662792172229,0.804771232324984,-0.5578759338165191,0.0004881600182946,-0.0016479856638653,-0.0001198234848937,-3.775179670590614e-06,8.926127111179183e-06,-6.471976713957028e-06,11803,31.338674,66.164059,42.539119
0.2426445328670659,0.8084907651232937,-0.5176482121490518,0.0002200797078878,0.0002794701065018,0.0021773330376311,-3.705914083576668e-06,8.61837517311684e-06,-6.468593092159516e-06,11804,31.459353,66.409159,42.87433
0.2117843164795225,0.7497300878080223,-0.4400169316139268,-4.699028109016168e-05,0.0023192282340982,0.004476110271001,-3.5933730834211232e-06,8.088809671883375e-06,-6.469524849425133e-06,11805,32.083876,66.914345,43.756152
0.1209234395742619,0.6963611782389169,-0.3195651381083851,-0.0003100348144596,0.0044203611088255,0.006747604868322,-3.4255521493141538e-06,7.369880996234175e-06,-6.402062774302943e-06,11806,33.660772,67.69793,45.608118
-0.1611631619322194,0.6717375140088799,-0.1830554287836984,-0.0005617350574633,0.0064965626115355,0.0088963889441353,-3.1434630518517064e-06,6.475368589658932e-06,-6.070713716637278e-06,11807,35.780868,68.869213,48.19674
-0.5916728826903932,0.6388829252927777,-0.0935806790576331,-0.0007953389380498,0.0084329398357887,0.0108301196426966,-2.70239316911886e-06,5.41650794336025e-06,-5.333489091482861e-06,11808,37.989564,70.496257,51.023111
-0.8573189209747267,0.5336820938693281,-0.0402161968621577,-0.0010027237311765,0.0100690077822139,0.0124297831415512,-2.1264567073643653e-06,4.2184214437817615e-06,-4.251374267323611e-06,11809,40.551768,72.467075,53.933591
-0.8431488919081025,0.3421158045011643,0.2007259623127917,-0.0011782030863657,0.0113182110106869,0.0136249500604579,-1.4829779372124786e-06,2.9344690985318693e-06,-3.010737652316977e-06,11810,43.669478,74.548794,56.94287
-0.6436757866612733,0.1101057442552216,0.7260793897488721,-0.0013192634051466,0.0121742101397928,0.0144056718566188,-8.382187799666541e-07,1.6463088252207266e-06,-1.7800597956441356e-06,11811,47.443357,76.504933,60.479211
-0.2942067031294805,-0.1125321099260498,1.2032429473048505,-0.0014234060233161,0.0126419622436539,0.0147662362058981,-2.519074167628899e-07,4.230652128855392e-07,-6.968129421508896e-07,11812,52.209343,78.201084,65.334465
0.0803907744580706,-0.2832056028009517,1.327734068317731,-0.001489581209673,0.0127775153637209,0.0147332345558712,2.522446086801443e-07,-7.541562935194762e-07,1.709708957483674e-07,11813,58.857628,79.640389,72.389891
0.2628912747114047,-0.3972959290235033,1.246904545086359,-0.0015169495096142,0.0126173625251209,0.0143334697405756,7.085885202219607e-07,-1.932579374487012e-06,9.115910261313376e-07,11814,68.317236,80.915457,82.30763
0.2603783971923051,-0.4931006073417938,1.1901978506520017,-0.0015048855567578,0.012178172965505,0.0135947535252041,1.1611945118307177e-06,-3.0798515786979664e-06,1.6797623724943169e-06,11815,80.808117,81.876567,95.299498
0.2327760105797652,-0.5628816716843168,1.1454769686056023,-0.0014552010428459,0.0115321094670729,0.0125933646956265,1.615439863198542e-06,-4.146549089820018e-06,2.5098434889781235e-06,11816,94.477994,82.331959,109.521016
0.2607282229380224,-0.5666319728499832,1.0902215982938754,-0.0013723703811465,0.0107997924244101,0.0114567632108519,2.046943943906537e-06,-5.108610022058943e-06,3.327275995652609e-06,11817,106.684141,82.406562,122.20606
0.3339374604059242,-0.5226780567807343,1.0656928585093373,-0.0012583482813338,0.0100354720747597,0.0102517261107402,2.441031980548215e-06,-5.91299700950292e-06,4.112481134018986e-06,11818,116.831165,82.304484,132.636611
0.3704603098909642,-0.484182052561308,1.045325025853622,-0.0011128567659846,0.0092317601076631,0.0089878522451292,2.790862518865496e-06,-6.49649092377933e-06,4.887420202639199e-06,11819,125.403563,82.141526,141.342546
0.3488044973432629,-0.4908762207629407,0.9951096651947408,-0.0009363767991849,0.0083715583880358,0.0076770837060998,3.065631266917799e-06,-6.838420563421166e-06,5.578776852098008e-06,11820,132.308268,81.941089,148.383194
0.3368744960749884,-0.536406370074287,0.9398867476740604,-0.0007289809321119,0.0073950967457362,0.0063039097121209,3.2398574756863158e-06,-6.989725442686526e-06,6.073380701731393e-06,11821,137.61797,81.724602,153.866252
0.3335307762583751,-0.5581472545517592,0.9049537199480018,-0.0004946411007101,0.006289311706711,0.0048775641349228,3.322309605493589e-06,-7.023333123714769e-06,6.340265514900666e-06,11822,141.600819,81.537375,158.097273
0.2982918019476567,-0.5236544216515915,0.8687006198686862,-0.0002422271399244,0.0050932847338041,0.0034371008507776,3.3302952580516e-06,-6.940846671231977e-06,6.429285166394696e-06,11823,144.436516,81.401955,161.242788
0.2702775641209893,-0.4764310486503124,0.8120051039076674,1.6561053404767702e-05,0.0038292139906908,0.0020024729806278,3.2839093514942392e-06,-6.739480698724257e-06,6.412341646302802e-06,11824,146.617427,81.326953,163.715189
0.2769646872205731,-0.4606960660764719,0.7572207853238653,0.0002648333180871,0.0025263054938279,0.0005871223107487,3.210710678537681e-06,-6.505446790379407e-06,6.3251798430074444e-06,11825,148.157753,81.266124,165.502763
0.1808437205178744,-0.4668415164096073,0.7050973988687422,0.0004933683172497,0.0011994847021856,-0.0008019884147039,3.1384727711853165e-06,-6.325207360167539e-06,6.202989436535588e-06,11826,149.181242,81.183156,166.562409
-0.2121278009841902,-0.4854733790029985,0.6359168055225463,0.0007013119071566,-0.0001594085048582,-0.0021724112652572,3.086050605811034e-06,-6.2092124675050944e-06,6.1079600233134015e-06,11827,150.128763,81.141677,167.356156
-0.8225806705228047,-0.542382199511265,0.5637608699123102,0.0008882374105005,-0.0015553923373394,-0.0035409174821759,3.0540647532582e-06,-6.160916754023128e-06,6.04648436372732e-06,11828,150.196182,81.268297,167.369338
-1.2466401406061665,-0.6202319038209395,0.4881087466546947,0.0010582481373613,-0.0029997337745422,-0.0049394129163854,3.031518837461393e-06,-6.210894069627894e-06,5.9564251130570055e-06,11829,148.561191,81.623755,165.770009
-1.3475072542586766,-0.6442164015511532,0.4308550869175853,0.0012123887751205,-0.0044795428409409,-0.0063718950241738,2.9871053151492943e-06,-6.296882528165158e-06,5.766448735538506e-06,11830,146.517299,82.035127,163.513271
-1.4663089347213727,-0.5870678571752743,0.4214804787265338,0.0013481602115451,-0.0059511891585106,-0.0078112139581189,2.862354950862334e-06,-6.198039915490427e-06,5.4337168870107735e-06,11831,144.161336,82.376914,160.722729
-1.6994360280671554,-0.5200195976435735,0.2568985940240074,0.0014669344724158,-0.0073589389811073,-0.0092235816216651,2.6021930856580125e-06,-5.7174666363970784e-06,4.91250180787826e-06,11832,138.814671,82.800304,155.12982
-1.8008415217689686,-0.5007750628967691,-0.2694442059408766,0.0015724896768512,-0.0086202862719304,-0.0105531353812589,2.1814851232422736e-06,-4.850257119257512e-06,4.112587506408598e-06,11833,126.950724,83.356839,143.211071
-1.6901116209865712,-0.4084146217856872,-0.8654297356719491,0.0016660159652608,-0.0096899880190049,-0.0117633820863764,1.6256844491579926e-06,-3.6977300400285754e-06,3.0391971230817517e-06,11834,108.542691,83.804635,124.817029
-1.3668231101752766,-0.0828810708723662,-1.09749019481381,0.0017468924339086,-0.0105640063303203,-0.0128389882482028,1.012103651011439e-06,-2.3847944826774075e-06,1.8700222305850288e-06,11835,87.159867,83.721655,103.331505
-0.8757377899818353,0.3339427947850141,-1.0366828199032292,0.0018142750690586,-0.0112371878557399,-0.013751659874119,4.164874682938388e-07,-1.063761385377552e-06,7.644349523529279e-07,11836,68.913163,82.878695,84.8026
-0.4123595311176403,0.5366048091559187,-1.0168015617883102,0.0018659756371045,-0.0117231373829534,-0.0144697096038113,-1.431967990209062e-07,2.16513872853612e-07,-2.467560256207159e-07,11837,57.249341,81.52663,72.800912
0.0705226216933951,0.5195756524377518,-1.1378050767382355,0.0019035094830861,-0.0120164335675473,-0.0149546755622576,-6.981494369735194e-07,1.5780614233805627e-06,-1.1805086811481183e-06,11838,49.926997,79.972125,65.23843
0.8189110853648729,0.5019138410121381,-1.3320066386097262,0.0019326913821346,-0.0120883079779319,-0.0151556254042589,-1.272635850166947e-06,3.136575170610378e-06,-2.033583077520022e-06,11839,44.163309,78.243894,59.377345
1.5855376869617264,0.5321890231443858,-1.5159332680992783,0.0019609280067838,-0.0119210075845221,-0.0150147372860215,-1.855960243654568e-06,4.840713836156709e-06,-2.8066805981929904e-06,11840,39.206139,76.389339,54.449281
1.9095299399603287,0.532430219041878,-1.5999624794441831,0.0019993042988436,-0.0114976459450858,-0.0144620720195427,-2.4134257098412422e-06,6.466188787136635e-06,-3.542354739539016e-06,11841,35.204047,74.478976,50.487843
1.8616139834429732,0.5341099527966098,-1.5687223177287193,0.0020404913714974,-0.0108100378255782,-0.0134601509033437,-2.897010432967093e-06,7.743656017591846e-06,-4.266750129550343e-06,11842,32.450958,72.609024,47.595674
1.7162564960945277,0.6467859597939936,-1.4751583047878027,0.0020554901458189,-0.0098643658049877,-0.0120087439052572,-3.270373595157443e-06,8.550659531088129e-06,-4.943552890617442e-06,11843,30.895045,70.963063,45.605457
1.5935314504041986,0.8739103610461308,-1.3664225196767528,0.0020027309638744,-0.0086723227610122,-0.0101225270022736,-3.543645742974549e-06,8.976286548456384e-06,-5.5456595647809e-06,11844,30.152256,69.635731,44.269161
1.5161861307411453,1.0597283005694205,-1.2719488751614765,0.001817261204654,-0.0072572928206735,-0.00784962429275,-3.760613682403311e-06,9.199592467770442e-06,-6.097552564142601e-06,11845,29.848307,68.616287,43.475372
1.3434848136820752,1.092336699589204,-1.186758235471979,0.0014894576212475,-0.0056448015588048,-0.0052506730002134,-3.948972181847131e-06,9.361852582697352e-06,-6.603639826776186e-06,11846,29.844012,67.862607,43.178244
1.0402617924497075,1.037889952874968,-1.0754685667411972,0.0010722913671722,-0.0038643413320014,-0.0024061018761589,-4.103005507810848e-06,9.544534122483185e-06,-6.999038119863838e-06,11847,30.053616,67.352878,43.30196
0.7198883678824572,0.9763002073400588,-0.9371908839172748,0.0006404240796722,-0.0019634724691417,0.0005458629228215,-4.210120042137504e-06,9.73727462640558e-06,-7.2454514127729394e-06,11848,30.29673,67.134511,43.741738
0.3323554615415003,0.902862917166572,-0.7891536121785157,0.0003212254752326,-1.0205525914444048e-05,0.0033980410908155,-4.270936197826638e-06,9.791181412612888e-06,-7.433221984658879e-06,11849,30.516261,67.265221,44.422762
-0.0587124888875129,0.8377159581233198,-0.5938756370367438,0.0001665373954185,0.0019493069075293,0.0060169478964025,-4.278720499174343e-06,9.513164687635006e-06,-7.666693492893288e-06,11850,30.893883,67.72037,45.358332
-0.2241655593489209,0.7947028205257811,-0.3759359431772023,0.0001441877883356,0.0038894663828802,0.0083393142776053,-4.191582021610448e-06,8.819640111513712e-06,-7.868056931231263e-06,11851,31.69535,68.47167,46.773617
-0.3178802368418599,0.6665953595792002,-0.241481210459788,0.000222566978112,0.0057809915772019,0.0102880072126204,-3.93893794197271e-06,7.692997462575803e-06,-7.81275426329102e-06,11852,33.461481,69.514943,49.158073
-0.6210112176622489,0.3997328859997098,-0.1271445196560184,0.0003302141143687,0.0076015434183202,0.0118079273330614,-3.4568144600309e-06,6.075904906365274e-06,-7.321810527248041e-06,11853,36.550058,70.949508,52.642159
-0.912941385366248,0.1654913820324497,0.1297330594245842,0.000425919601316,0.0093021409809976,0.0128681797754438,-2.7423309559301605e-06,4.029785438183851e-06,-6.348601274664587e-06,11854,40.507713,72.789294,56.736115
-0.9051879529897842,0.1006919179466202,0.5268267335597762,0.0005053269751976,0.0108008331178877,0.0134632740430601,-1.8754642414435108e-06,1.8620719271813333e-06,-4.959890025191045e-06,11855,45.285371,74.861431,61.36852
-0.7673342088452013,0.0876177462907461,0.9630573274871904,0.000531690084929,0.0120021843086071,0.0136496347878415,-9.795668862868565e-07,-8.704712337407068e-08,-3.336820109361012e-06,11856,51.18142,76.875367,66.782341
-0.6418268451839221,0.0073010556213155,1.3020076964269358,0.0004512044132407,0.0127815869564644,0.0135616676316552,-1.8117135272662082e-07,-1.6426157933042675e-06,-1.7747246146864053e-06,11857,57.304256,78.548223,72.387114
-0.378758978358223,-0.0900449827018706,1.4025861703452174,0.0002493232112646,0.0130869503418639,0.0132719562215636,4.412668660983298e-07,-2.7708850746663065e-06,-5.056990858281932e-07,11858,62.269242,79.750851,77.234719
-0.0125427861856715,-0.1649460217197444,1.3333644393101367,-5.233030337783214e-05,0.0129494421725854,0.0127992931149611,9.084047112415384e-07,-3.5293223613770063e-06,5.001592728446075e-07,11859,66.348413,80.732609,81.58028
0.2532427019221096,-0.2327465647715828,1.2833358251932292,-0.0004086253179254,0.012429865637792,0.0122000741407777,1.3004567044236924e-06,-4.078494716104201e-06,1.400953448335927e-06,11860,71.444048,81.742503,87.048134
0.4461705462417503,-0.2714212041162313,1.2736830389838305,-0.0007306730038044,0.0116597598279347,0.0115410510909496,1.6740577071810971e-06,-4.617323042613868e-06,2.2582261915040003e-06,11861,79.052502,82.664238,95.055677
0.6637746015156634,-0.25123854973872,1.2629910951190826,-0.0009793999528913,0.010714745661648,0.0108547654099629,2.038024638947361e-06,-5.222401873633897e-06,3.058516504998076e-06,11862,89.189004,83.285194,105.613355
0.7802447516732538,-0.1950915706273514,1.2649086898930797,-0.0011674488525966,0.0096124753334589,0.0101439370966046,2.382140595497221e-06,-5.840785882500889e-06,3.798453305511389e-06,11863,99.950783,83.547307,116.826752
0.7092689886066443,-0.1814799113274906,1.2416012166368846,-0.0012969955686635,0.0084146858998915,0.009380903948312,2.6898682888626544e-06,-6.418105742497566e-06,4.447551412836822e-06,11864,109.727637,83.553058,127.082639
0.6222672039635666,-0.2645485974387985,1.1623983572997938,-0.0013847894068186,0.0072005752802807,0.0084895187112664,2.923582383205962e-06,-6.905265599690056e-06,4.911882564205053e-06,11865,117.552101,83.385183,135.339336
0.5910708740360393,-0.3817752634969819,1.0758222325636215,-0.0014325815941577,0.0060180203144108,0.0074539436841152,3.051082215573734e-06,-7.224687757346441e-06,5.138499484537358e-06,11866,123.331254,83.163122,141.473069
0.5117804507138785,-0.444467705651945,1.0229895213960862,-0.0014206966441311,0.0048915347564036,0.0063201205623705,3.086115043221552e-06,-7.359668543819976e-06,5.1761479457901446e-06,11867,127.414696,82.923699,145.858072
0.3735632733425219,-0.4789374800122588,0.9920716589344488,-0.0013411478759669,0.0038261137105644,0.0051285639648834,3.0720664741642925e-06,-7.428192117210951e-06,5.0770781116388805e-06,11868,129.921082,82.680881,148.71465
0.2220387703637648,-0.534282538478548,0.9332813111973548,-0.0011890534178939,0.0027922577798865,0.003944738663811,3.057260098428941e-06,-7.581772082558922e-06,4.90328070789263e-06,11869,131.154485,82.448548,150.415744
0.1219669139471293,-0.5911103166417672,0.8144655575668548,-0.0009681302693936,0.0017771397755915,0.0027918579858666,3.0824891182599246e-06,-7.846589964661502e-06,4.7915768227410335e-06,11870,131.721714,82.224563,151.436637
0.0547889967184572,-0.6509042667817688,0.6867065616343918,-0.0006967868203768,0.000780603112142,0.0016406120809758,3.153411064420083e-06,-8.122634439384523e-06,4.8315969432249856e-06,11871,132.52627,81.996748,152.427439
-0.1393742769577236,-0.7456875821346454,0.6101125933180241,-0.0004019829873703,-0.0002270041009621,0.0004612115260776,3.244674034260477e-06,-8.294051281698911e-06,5.001515949258642e-06,11872,133.826756,81.819116,153.625031
-0.4483355150176218,-0.8732601536048648,0.5492716117712442,-0.0001256888149838,-0.0012992029132245,-0.0008006079514934,3.3407630167817906e-06,-8.286014134905726e-06,5.297658704907004e-06,11873,134.376345,81.742389,154.038214
-0.6805227351036442,-0.9965813064187528,0.4532692025386184,0.0001127624973402,-0.0024513929830485,-0.0021619774287796,3.435464199648407e-06,-8.094230887756462e-06,5.715601374873493e-06,11874,132.723095,81.843685,152.420879
-0.8204677182751561,-1.0559949670519488,0.3426877145395251,0.0003188797056094,-0.0036625190803188,-0.0035948402122751,3.495340920619964e-06,-7.779852053242428e-06,6.106938962906685e-06,11875,129.513606,82.126352,149.286901
-1.02286731714767,-1.0217329867611658,0.2696606442473022,0.0004997680746965,-0.0049010723629516,-0.0050730742951074,3.467381463284354e-06,-7.381171884980344e-06,6.26078396620436e-06,11876,126.841332,82.380595,146.417079
-1.289517875039898,-0.9372322573008578,0.2412945344801912,0.0006763248043747,-0.0061056040631923,-0.0065515963023155,3.3134337409545146e-06,-6.841665669142332e-06,6.087095010940659e-06,11877,124.324736,82.483093,143.490563
-1.4652051223440803,-0.8598636758313917,0.1066360092982484,0.0008593583753994,-0.0072331158127597,-0.0079945260766201,2.9965323864569467e-06,-6.011001432214461e-06,5.5778883844085695e-06,11878,118.683666,82.509761,137.625015
-1.4761900566222588,-0.8109314180531202,-0.3083557372936704,0.0010480563425382,-0.0082589529567377,-0.0093781011306213,2.48028179888444e-06,-4.777964810344979e-06,4.69345470498408e-06,11879,107.266619,82.465726,126.310242
-1.300544879095182,-0.7248276887150524,-0.8266427628182171,0.001252569303243,-0.0091341945180395,-0.0106573677345089,1.803014645115338e-06,-3.228790924324453e-06,3.495431142742074e-06,11880,92.511801,82.173618,111.647175
-0.9536882852362032,-0.4797255251999316,-1.0972438687654753,0.0014891061121311,-0.0097935789842051,-0.0117705415584071,1.0861129390104275e-06,-1.5596981277144873e-06,2.257014443262224e-06,11881,78.523478,81.510743,97.462402
-0.5843433402482141,-0.1368054461459674,-1.1231233405428678,0.0017629437920839,-0.0102004745018767,-0.0126777618116295,4.267799003438114e-07,6.614160843909544e-08,1.199653415607075e-06,11882,67.681059,80.539594,86.221411
-0.2872026321664703,0.07301175120385,-1.1407384891982102,0.0020699060261613,-0.0103447496308239,-0.0133583962368226,-1.626686321649207e-07,1.558453275759152e-06,2.977241880437508e-07,11883,60.17256,79.393847,78.223856
0.0678213604343432,0.1033462213030882,-1.2418083648799088,0.0024005888533104,-0.0102274520326184,-0.0137949454530488,-7.221608181572686e-07,2.980169685586666e-06,-5.49553775825594e-07,11884,54.298771,78.097608,71.845681
0.5795744690441978,0.1250306525988076,-1.4056223189657282,0.0027349434099737,-0.0098753618053312,-0.0139836065233785,-1.2935191727906977e-06,4.484917044796719e-06,-1.3770724261842e-06,11885,48.755507,76.603703,65.863947
1.0872863629190728,0.248319550528629,-1.5527380272962124,0.0030562651873755,-0.0093056009590938,-0.0139031609544808,-1.8897187893711457e-06,6.105654263129465e-06,-2.1963561519946616e-06,11886,43.720315,74.989981,60.402752
1.397418559801077,0.4432340004479032,-1.559715440844078,0.0033499638624035,-0.0085277214131147,-0.0135128323741351,-2.483758711241594e-06,7.66304881074509e-06,-3.0372664722838205e-06,11887,39.45641,73.370892,55.645592
1.497016483674902,0.6177625770633586,-1.443542641880131,0.0035903539387734,-0.0075772045700861,-0.0127748830982594,-3.0159793717759557e-06,8.87077514247611e-06,-3.9070818982280285e-06,11888,36.102938,71.770747,51.719944
1.4515334721435365,0.7258434123145314,-1.34094147391154,0.0037414120129068,-0.0065125510757563,-0.011645513244682,-3.436384160786381e-06,9.60549086035016e-06,-4.72906630983158e-06,11889,33.875551,70.264104,48.773748
1.3316289678597744,0.8266338022302706,-1.2709467335020626,0.0037836821822988,-0.0053635908160612,-0.010114246200346,-3.733621071442921e-06,9.971295133058278e-06,-5.394344473979683e-06,11890,32.857038,68.990496,46.841679
1.2430968177085155,0.9369571269423788,-1.1479964592065877,0.0037140890053331,-0.0041340134418205,-0.0082118350251259,-3.917318888204836e-06,1.0051074682418604e-05,-5.887945047185624e-06,11891,32.542005,68.064044,45.589645
1.1906440077566836,0.9824101985387116,-0.9653212213418216,0.0035335949763203,-0.0028259077319485,-0.0059905493650623,-4.011081862999438e-06,9.864897202357268e-06,-6.284732234276896e-06,11892,32.23353,67.497296,44.678113
0.9972385702573958,0.9575696492187664,-0.7907984096572164,0.0032557785496958,-0.0014257496889069,-0.0035442050389417,-4.044232683756584e-06,9.532529331195276e-06,-6.597142761716614e-06,11893,32.062081,67.17931,44.285263
0.6052107294665234,0.9164428554192542,-0.6766079041951635,0.0028875034187731,5.2695007252372486e-05,-0.0009603999549998,-4.017998626474603e-06,9.18469793093472e-06,-6.729629049485833e-06,11894,32.407927,67.05515,44.557823
0.2026211902269395,0.8701741305564352,-0.6272145268619826,0.0024290150638424,0.0015637851201998,0.0016741513846604,-3.899558605713389e-06,8.730070330873969e-06,-6.63405802434315e-06,11895,33.026852,67.190984,45.197491
-0.0545446097012884,0.8124867544741566,-0.5280617861307584,0.0018919444247421,0.0030590291374986,0.0042228858105051,-3.670570982023225e-06,7.946918199119148e-06,-6.4062184966143165e-06,11896,33.822876,67.608973,46.072598
-0.1262561626084545,0.7507704273896032,-0.2572569385956976,0.0012965673669158,0.0044720934023652,0.0064987212514165,-3.3666395489114896e-06,6.838303457269793e-06,-6.157352550432699e-06,11897,35.174919,68.331789,47.378681
-0.092587969178129,0.6867323363020919,0.0690986387882381,0.0006550000445159,0.0057577755316397,0.008397302550214,-3.023792364442968e-06,5.632260302848084e-06,-5.845124190998096e-06,11898,37.220128,69.335142,49.316978
-0.196174663514714,0.6160957949660134,0.2612237056354969,-2.6734035030547085e-05,0.0068956759329924,0.0098979628483743,-2.614819877854597e-06,4.4324787903283335e-06,-5.317154353810199e-06,11899,39.762882,70.51253,52.004698
-0.4889997326760049,0.5470988242141813,0.3224919019363377,-0.000741336028613,0.0078593934063081,0.0110001739316823,-2.1096520848508405e-06,3.2151743261151643e-06,-4.504028777986194e-06,11900,42.400874,71.888709,55.151955
-0.6847325727400357,0.4640910049489858,0.371280237444299,-0.001483784025563,0.0086279331600501,0.0117669211442825,-1.561242105349405e-06,2.097239819741762e-06,-3.508971702245136e-06,11901,45.064117,73.499722,58.367677
-0.6011052998521712,0.3003511334860564,0.5242364419283255,-0.002234472371147,0.0091920587362309,0.0122342093473692,-1.0561682293592989e-06,1.2407885695946463e-06,-2.503808487752484e-06,11902,47.787811,75.223517,61.419139
-0.332328538329231,0.0783041240091416,0.7782677713712829,-0.0029560708472899,0.0095545520195982,0.0124127324815342,-6.091072286294132e-07,5.870876203912575e-07,-1.5615609922451535e-06,11903,50.623666,76.825477,64.487914
-0.0605417533167368,-0.0647886710469072,0.9475915014921776,-0.003601210114148,0.0097400501669328,0.0123771948456534,-1.9170787207880318e-07,-2.528112882190964e-08,-6.821502951556253e-07,11904,53.623417,78.114816,68.004964
0.104167925421917,-0.1237858368850182,0.9349200634306648,-0.0041038515306647,0.0098021871198938,0.0122565887285209,1.668121408696001e-07,-5.821137405537829e-07,5.7599260131174224e-08,11905,57.236397,79.155333,72.454027
0.2027393400104242,-0.200985823455654,0.8802082584888626,-0.0044286617822511,0.0097610526247361,0.0121043236200145,4.250763190406482e-07,-9.75180573779494e-07,5.984280876132027e-07,11906,62.6238,80.172605,78.622449
0.2719968163515391,-0.2869447992766851,0.8715032470176397,-0.0045741723279552,0.0096036175363235,0.0119037526193612,6.379617926925034e-07,-1.2645918472173926e-06,1.0818309854452331e-06,11907,70.103248,81.129281,86.846472
0.2552121299535927,-0.3841794513941424,0.8517759885936277,-0.0045434119145835,0.0093210660914778,0.0116256664598348,8.940424478076388e-07,-1.6360779966242905e-06,1.6700073950265989e-06,11908,78.833271,81.856773,96.451136
0.1974500789310332,-0.562751000427651,0.8072202651213666,-0.0043605548975986,0.0088921399049954,0.0111906961757592,1.187834599900424e-06,-2.169176885889331e-06,2.278276380838362e-06,11909,88.372553,82.279548,106.847189
0.1949481914533971,-0.739906142975518,0.8045145203458035,-0.0040436479154464,0.0083131657710604,0.0105720530922618,1.4619618752423484e-06,-2.792107756670955e-06,2.7604411113203187e-06,11910,98.305865,82.404099,117.413547
0.1958347054445227,-0.7793089483446923,0.9202818923385544,-0.0036047853877347,0.0076027747058232,0.0098010814751528,1.7196281813790975e-06,-3.409125042231971e-06,3.1962786633726115e-06,11911,108.207088,82.320721,127.720991
0.1619817342469484,-0.73590617461537,1.0887672478002963,-0.0030809805012614,0.0067758799121878,0.0088874672114397,1.9987233107059648e-06,-3.989086943418607e-06,3.7286763842087295e-06,11912,117.350212,82.098091,137.186723
0.1428651648998058,-0.7150825975141526,1.1398557813171608,-0.002532407111762,0.0058534998032575,0.0078458412400031,2.2767215354230087e-06,-4.486660753375795e-06,4.3084069445874215e-06,11913,124.712639,81.759353,144.847074
0.1237658108712323,-0.7088125031155941,1.0786803377580898,-0.001988244328385,0.004849738218205,0.0066867894506526,2.485431955557999e-06,-4.792206819211372e-06,4.789641336853501e-06,11914,129.573081,81.385447,149.93062
0.0859821508004131,-0.6859139063156611,1.0181661197139047,-0.0014485391681535,0.0037687957868843,0.0054085541606499,2.6075484539181154e-06,-4.9245623092904025e-06,5.108780901699239e-06,11915,132.388967,81.061086,152.863472
0.0409306224609553,-0.6492726590811597,0.9592168632153756,-0.000909971748597,0.0026189924595239,0.0040208666224158,2.683941750271146e-06,-5.048880025199281e-06,5.285180854064055e-06,11916,134.491318,80.82467,154.986837
-0.0511515052647821,-0.6185213398369438,0.8800157604333645,-0.0003504292459949,0.0014086288010536,0.0025412993094552,2.7339187679077256e-06,-5.175462860536559e-06,5.3712922161769234e-06,11917,136.438831,80.708088,156.930835
-0.1821822677304253,-0.6029215303176934,0.8121273019758506,0.000229508955761,0.0001506081308794,0.0009845339622274,2.7386849206296797e-06,-5.154004706704658e-06,5.410204029778864e-06,11918,137.597974,80.627761,158.01841
-0.2684081787976937,-0.5781484542474862,0.7532245060464108,0.0008034408837608,-0.0011351014357559,-0.0006337816410484,2.690976888892971e-06,-4.975417549328928e-06,5.381295855773533e-06,11919,138.109782,80.58731,158.375654
-0.3490316883031436,-0.5388540066221593,0.6897349296316956,0.0013507152103218,-0.002425822074228,-0.0022932774940706,2.616719740895049e-06,-4.798917402218696e-06,5.254727176145415e-06,11920,137.856242,80.689546,158.017461
-0.5462244531054421,-0.5137316089445862,0.6281555445856444,0.0018445626350279,-0.0036930480943869,-0.0039689552215244,2.54541533076526e-06,-4.694618647352013e-06,5.09019192565732e-06,11921,136.130202,80.931254,156.218574
-0.8807153353200706,-0.5023160626707,0.5453361732462501,0.0022686320596176,-0.004914441775815,-0.0056394644161498,2.468442693888185e-06,-4.578016151036064e-06,4.932771926470581e-06,11922,133.638201,81.20053,153.492211
-1.2831088327054454,-0.4806863381605628,0.4516862797117948,0.0026212054508239,-0.0060743720662174,-0.0072865670223958,2.33773243954955e-06,-4.381093259121153e-06,4.663353066228102e-06,11923,131.405883,81.352183,150.745842
-1.5909490076237924,-0.436737730425657,0.307066266418139,0.0028990980036465,-0.0071551155755178,-0.008889952188485,2.0969200799380258e-06,-4.02953500310837e-06,4.127815200853254e-06,11924,128.033586,81.430498,146.884113
-1.6730206862693988,-0.3866495736101324,-0.1012129201787565,0.0031039794352432,-0.0081400494607354,-0.0104288946716189,1.715093623207861e-06,-3.362789678644705e-06,3.3330388682772263e-06,11925,120.766897,81.584977,139.383564
-1.558756512186459,-0.3669112419687207,-0.7715832111884849,0.003239756360658,-0.009011187907131,-0.0118725631147334,1.2145927812110338e-06,-2.3502433409911777e-06,2.3867442047210163e-06,11926,108.235667,81.783369,126.776185
-1.278410405344515,-0.2973126264806798,-1.2953065038857958,0.0033122607498413,-0.0097482290655266,-0.0131773868190934,6.623574630326125e-07,-1.2052238548385737e-06,1.364604856983765e-06,11927,92.669986,81.743286,110.917414
-0.8916933548389068,-0.0261839884242798,-1.4270382205231569,0.0033375617077356,-0.0103320625353474,-0.0142902933571082,1.37089898975751e-07,-1.8445938062129718e-07,3.413920078396023e-07,11928,78.254893,81.281473,95.744133
-0.5558686322542015,0.3356063630730108,-1.3618258650137036,0.003343491104422,-0.01074391401805,-0.01514247039682,-2.988123721924644e-07,5.864818676750257e-07,-5.594723938059675e-07,11929,67.215216,80.454125,83.776274
-0.2446830173765559,0.5077302529944417,-1.3239926529961927,0.003340902935398,-0.0109684243437194,-0.0156908899349182,-6.435694623863697e-07,1.1566842059463248e-06,-1.2883413692419326e-06,11930,59.419116,79.385496,75.20533
0.2230995867114714,0.4808783646318331,-1.3558027767469738,0.0033236049556487,-0.0109948193399157,-0.0159206097937396,-9.579021197620206e-07,1.6623443143481087e-06,-1.9571827019472928e-06,11931,53.25565,78.128369,68.450807
0.7890654484657222,0.4569020620404033,-1.4090401568866535,0.0032833349640342,-0.0108156548915755,-0.0158207436064468,-1.28318949147886e-06,2.1833899842487696e-06,-2.66070382887792e-06,11932,47.669417,76.690094,62.451128
1.2461046508732772,0.4961196927517944,-1.3928261350818505,0.0032010282272751,-0.0104290374706947,-0.0153983654927285,-1.5967669689341826e-06,2.7166012304340857e-06,-3.3257135903826054e-06,11933,42.81654,75.16156,57.268588
1.4954312913687589,0.5217666912212026,-1.2991535547429591,0.0030658400910563,-0.009839087157324,-0.0146546853478818,-1.846312183852724e-06,3.2102753804169423e-06,-3.805484981124071e-06,11934,38.875252,73.590417,52.923341
1.5082923937605597,0.5381033548168234,-1.2099157911663745,0.0028760316596041,-0.0090581824305644,-0.0135851730863486,-2.0015320043199183e-06,3.620486584514569e-06,-4.030471856961219e-06,11935,36.032845,72.039814,49.473175
1.3890056939167512,0.6672760185739272,-1.1387245297470678,0.0026219733373005,-0.0081117542197339,-0.012205736435707,-2.0862920579646046e-06,3.968034875007448e-06,-4.068669519181845e-06,11936,34.285379,70.645062,46.876201
1.284922397581976,0.9342734734409388,-1.0592968128035825,0.0022900857783933,-0.0070425598711898,-0.010550857370859,-2.155272713479286e-06,4.316769775801158e-06,-4.0506232102120775e-06,11937,33.198711,69.524665,44.895266
1.2217149912777372,1.1373479762401095,-0.9764886564916244,0.0018820498097911,-0.0058732758201428,-0.0086432096367458,-2.261852680119889e-06,4.731531006602153e-06,-4.10090111283576e-06,11938,32.191143,68.68167,43.323252
1.1534689062451084,1.1298645432337744,-0.8956490765840451,0.0014152563906316,-0.0046065445695298,-0.0064979501178067,-2.43314916606265e-06,5.220978452882713e-06,-4.300414886522676e-06,11939,31.166433,68.010647,42.231394
0.9342673547337852,1.029027065969761,-0.8153792674174539,0.0009185296095271,-0.0032475368762707,-0.0041398482469042,-2.633465056033991e-06,5.704744564722085e-06,-4.588755597560712e-06,11940,30.538709,67.533335,41.790422
0.5418863956033231,0.959797144934901,-0.7328741965303085,0.0004405503179424,-0.0017938751757047,-0.001598868073818,-2.794959898062027e-06,6.067407805112817e-06,-4.835428323651887e-06,11941,30.574802,67.282889,42.08254
0.2248843524318104,0.8995015765375227,-0.6532620689246171,3.221619727476451e-06,-0.0002628294589782,0.0010575035154511,-2.867075360407433e-06,6.1764655202598175e-06,-4.982868626366907e-06,11942,30.979717,67.355166,42.802499
0.090503860895459,0.8185376905283026,-0.5601350148676765,-0.0003999576798685,0.0013040161816965,0.0037139448886399,-2.8149993278137187e-06,5.921044795914211e-06,-4.991275480457539e-06,11943,31.385948,67.745097,43.631179
0.0360751603074577,0.7174313543312448,-0.4018987614438076,-0.0007749450466879,0.0028587901616042,0.0062147679357505,-2.6349486606788426e-06,5.321723886713358e-06,-4.814179259048129e-06,11944,32.250365,68.448406,44.801667
-0.0344754888331068,0.590157697141986,-0.1807064291952945,-0.0011410839719341,0.0043359389774855,0.0083403554631133,-2.3494517566591e-06,4.4654836750393295e-06,-4.463400627815984e-06,11945,34.021198,69.405972,46.687078
-0.2667027538452301,0.457303140631748,0.0436757284448523,-0.0015155890671803,0.0056766217187564,0.0099760536276781,-1.9608664613691924e-06,3.3600494859772235e-06,-3.960948353084237e-06,11946,36.723435,70.608863,49.485721
-0.6306569850404901,0.3699681979160536,0.2637337607577297,-0.0019129425993063,0.0068283362504524,0.0111209625155214,-1.4585711298160227e-06,2.0362778713195667e-06,-3.250704831064816e-06,11947,39.884383,72.185381,52.795183
-0.8172060382020576,0.3384481883605991,0.5335487076578032,-0.0023662587058465,0.0077202353333096,0.0117915284832782,-8.740648182040578e-07,6.872109190636764e-07,-2.285967677489865e-06,11948,43.256563,74.050498,56.355382
-0.7579792492559524,0.2966946452235851,0.846302122249933,-0.002927033550557,0.0082655690427305,0.01207803912642,-2.998224785548343e-07,-4.546428613239173e-07,-1.2165097259693582e-06,11949,47.049093,75.967143,60.219533
-0.6226804267410676,0.2071876097456879,1.0800306187251054,-0.0035980351288518,0.0084445485925203,0.0120465759609712,1.707116782905053e-07,-1.267703228058415e-06,-2.799294800287515e-07,11950,51.149171,77.588154,64.208264
-0.3715409520772418,0.0936382534241047,1.1413754314626805,-0.0043295953316867,0.0083120210806139,0.0117397760222432,5.082454664598987e-07,-1.7010085379702214e-06,4.811526601108478e-07,11951,54.548702,78.66547,67.642637
-0.0180926366896047,-0.047176017921068,1.0874672906982603,-0.0050467189650799,0.0079693322008423,0.0112839418560575,7.164997375514128e-07,-1.7289294808460335e-06,1.123575976590904e-06,11952,56.940738,79.472344,70.524634
0.2281920031903409,-0.1935034651591829,1.0268586098214,-0.0056221635093377,0.0076026422698393,0.0108813864833292,8.039910747489174e-07,-1.4716146859417262e-06,1.5802550403041876e-06,11953,59.444628,80.360474,73.814938
0.3785129273033692,-0.2679871962388155,0.983377948290147,-0.0060008910509782,0.0072907747429541,0.0106219914871938,8.285251294556512e-07,-1.2306151112635132e-06,1.804674526839937e-06,11954,63.468171,81.250049,78.67162
0.5255449651298512,-0.2598526312503476,0.934016539657914,-0.0062064294861661,0.0069984819419771,0.0104877504133704,8.698936360849544e-07,-1.242364904513899e-06,1.8997653435909048e-06,11955,69.241046,81.97201,85.254319
0.5818010685894327,-0.2562430649768691,0.884183436100711,-0.0062607255873887,0.0067006473655544,0.0104387216335805,9.456772247277018e-07,-1.517423835826897e-06,1.9397133013973856e-06,11956,76.353901,82.497556,93.173096
0.5359051915988626,-0.3241336052412548,0.83763498150969,-0.0062222317208411,0.0063267112761569,0.0103560166973994,1.024336111047317e-06,-1.942120324737585e-06,1.90527927072817e-06,11957,84.254207,82.790141,101.834045
0.4959891021429305,-0.4226972392717708,0.7891304338310522,-0.0061152422756993,0.0058534014438335,0.0101806493660228,1.0948769354687283e-06,-2.3882766273301803e-06,1.8397789293999315e-06,11958,92.241676,82.854524,110.427104
0.4771726430224087,-0.477917547573362,0.7473763247948011,-0.0059223035466935,0.0053175988266374,0.0099173461027496,1.1745872590806263e-06,-2.766248860098335e-06,1.8597650119872849e-06,11959,99.508401,82.746822,118.196131
0.4276031179099808,-0.4803362616591292,0.7167225132722934,-0.005649784521626,0.0047280882424961,0.0095156066153665,1.2613738539375016e-06,-3.0440573798288e-06,1.9802314693411406e-06,11960,105.957394,82.567627,125.054442
0.3606644689056235,-0.4641597369988534,0.690085327273517,-0.0053099005524902,0.0040912113850792,0.0088977786451442,1.327769918139769e-06,-3.244401862884239e-06,2.082888460270199e-06,11961,111.653771,82.367643,131.12301
0.3105812997536912,-0.4753972199422586,0.6576438313365893,-0.0049095047054038,0.0034075551427401,0.0080303447415,1.3736399548019726e-06,-3.4344107449798914e-06,2.1126531405926537e-06,11962,116.409863,82.130214,136.255423
0.2579885281865033,-0.5770976463960789,0.6253758994956711,-0.0044573150030086,0.0026606226506307,0.0069145230435056,1.43636469173072e-06,-3.6893371837197615e-06,2.153501613774972e-06,11963,120.261036,81.860009,140.479342
0.1891278017640585,-0.7910322887094532,0.6198879202189295,-0.0039569535465278,0.0018352050220464,0.0055722554493781,1.5415438340722269e-06,-4.063902075570364e-06,2.264525358821272e-06,11964,123.76313,81.570484,144.214424
0.0883920535268252,-1.0286582245304623,0.6385030307154879,-0.0034058877743611,0.0009114584402141,0.0040672143788508,1.6856784132107271e-06,-4.548043117163134e-06,2.43416966291941e-06,11965,127.15789,81.308949,147.649649
-0.1312765796188482,-1.1832343808546697,0.6525448005577119,-0.0028162085369183,-0.0001137018662569,0.0024361104109513,1.8614163588760044e-06,-5.055822826993638e-06,2.685258961027933e-06,11966,130.302068,81.143154,150.711362
-0.4536216151798599,-1.2380884501247666,0.6331788220899208,-0.0022152955710449,-0.0012219174592157,0.0006911207765434,2.058507660181216e-06,-5.5184828317839805e-06,3.026441364491755e-06,11967,132.302025,81.101339,152.613166
-0.6296628895764467,-1.2085043760367868,0.5585282804199192,-0.0016372280265507,-0.0023868136910503,-0.0011254754590797,2.22862921003792e-06,-5.889097831831833e-06,3.3320950879496225e-06,11968,132.218644,81.219717,152.452568
-0.6560629055197775,-1.1298193975992223,0.5094128921128724,-0.0011305552672376,-0.0035637251590842,-0.0029524863381131,2.2759196103563386e-06,-6.013984595020909e-06,3.396548616473726e-06,11969,130.978948,81.342841,151.024921
-0.9241959610395304,-1.0515887502457075,0.4987241490327028,-0.0007218648382341,-0.0047180168220796,-0.0047396266267699,2.136311833138626e-06,-5.711773825272896e-06,3.1359807156685933e-06,11970,128.805178,81.446256,148.723739
-1.4384198656458915,-0.9606065473290798,0.2602571877386724,-0.0004134747672079,-0.0058246948585244,-0.0064400422483829,1.8597361704596196e-06,-5.011032638902615e-06,2.693478788917721e-06,11971,124.12078,81.65604,144.220857
-1.708618199361605,-0.8851195402388656,-0.2632139266848975,-0.0002062452694368,-0.0068430849673064,-0.0079991366046819,1.5458828965880275e-06,-4.109904241369324e-06,2.255597605988368e-06,11972,114.938846,81.982169,135.367692
-1.4894182261328872,-0.8118094496657018,-0.6508765130547038,-8.776639785722813e-05,-0.0077210225636718,-0.0093578459138222,1.2426927223803585e-06,-3.184250385752312e-06,1.8583506563299028e-06,11973,102.099571,82.272619,122.520165
-0.9727094793078586,-0.521089794656556,-0.730761053413826,-5.15626186588833e-05,-0.0084299928004186,-0.0104764109614169,9.72108874013922e-07,-2.361347561809676e-06,1.4971821592724986e-06,11974,88.503166,82.329355,108.256149
-0.474480947878673,-0.0276726886200566,-0.8255641327053649,-9.78742387160499e-05,-0.008964877019736,-0.0113365037984808,7.591972027548615e-07,-1.7291539235818305e-06,1.203353704418654e-06,11975,76.87767,82.018037,95.522828
-0.1163591307936586,0.2867985403695159,-1.0119651611310612,-0.0002128015958218,-0.0093313632134012,-0.0119341142193812,5.698366290316894e-07,-1.2470116748081765e-06,8.94808659211642e-07,11976,67.569477,81.29662,85.264864
0.1886566937530477,0.3317336320274024,-1.108463078193078,-0.0003707733642968,-0.009558462683634,-0.0122908192267009,3.097237210700711e-07,-6.97725073324426e-07,4.145511994178941e-07,11977,59.96883,80.143009,77.079227
0.4215519774902483,0.3695552430911976,-1.2165077205957906,-0.0005621101762634,-0.0096485916001348,-0.0123999297336905,-6.268362301847808e-08,1.28681395108988e-07,-2.3157897624667035e-07,11978,53.448527,78.701822,70.213766
0.5307703975592404,0.4466897777782309,-1.40980394752918,-0.0007915615804979,-0.009575918953604,-0.0122255106568706,-4.850450259231488e-07,1.2133578250540122e-06,-8.635167425552075e-07,11979,47.753769,77.176063,64.24387
0.7136523831086466,0.4518871416581207,-1.4898603101870622,-0.0010664369167961,-0.0093208833309755,-0.0117386719103912,-8.757156027184738e-07,2.3767688091339067e-06,-1.3416262081136297e-06,11980,42.838335,75.672529,59.06081
1.0242969982703398,0.4267193440246027,-1.401452617284035,-0.0014044167250543,-0.0088566967774012,-0.0109034199670365,-1.202499882139861e-06,3.4383364560976865e-06,-1.6743271563721944e-06,11981,38.826418,74.205343,54.705045
1.1571997173201942,0.4553261043837615,-1.2895728668486672,-0.0018117513378057,-0.0081791206128825,-0.0097124378042747,-1.4568929948849184e-06,4.237544638328847e-06,-1.9382329348458862e-06,11982,35.878037,72.771632,51.21417
1.0520326366156525,0.6375272479962183,-1.2063663116238896,-0.0022820099064864,-0.0073131286664448,-0.0081951676347705,-1.6347250032716995e-06,4.69309819203072e-06,-2.191589926744461e-06,11983,33.981845,71.443952,48.528183
0.9580791611788128,0.9883344988016044,-1.12707362887746,-0.002812700781617,-0.0062919331950083,-0.0063950536459685,-1.759591541234318e-06,4.9071353733790975e-06,-2.456158900376114e-06,11984,32.872373,70.3095,46.589917
0.9154602695487222,1.2596517393345377,-1.0425603233655465,-0.0033994382726998,-0.0051705124833633,-0.0043868053187261,-1.877648627585462e-06,5.113739481721979e-06,-2.7096702667749204e-06,11985,32.227355,69.354056,45.367674
0.8066251930086349,1.2835198197726332,-0.8995785485483965,-0.0040174525014248,-0.0039793501043351,-0.0022165218158153,-2.0189164736462296e-06,5.499109117049604e-06,-2.905731415979398e-06,11986,31.735796,68.672133,44.702811
0.6311285709314689,1.1883023646898063,-0.7093676812622869,-0.0046188297258862,-0.0027217134571276,0.0001000719606548,-2.1807826046614543e-06,6.055333994368443e-06,-3.046742493156102e-06,11987,31.095367,68.297367,44.333616
0.4657406977309531,1.102556273292822,-0.5845960504653993,-0.0051318649630172,-0.0014078380698041,0.0025318071414691,-2.3416564835828317e-06,6.592907988383662e-06,-3.201944156706502e-06,11988,30.488792,68.165651,44.350238
0.3471889791621521,1.0397053876435742,-0.5245044881330025,-0.0054488322261136,-4.208447301343567e-05,0.0050463472412221,-2.469588377444645e-06,6.882524882358974e-06,-3.41529936774715e-06,11989,30.484978,68.293621,45.036024
0.2489319534015659,0.9837776184891877,-0.416963243884261,-0.0055384319794411,0.0013477326483331,0.0075676789161831,-2.5220527539013405e-06,6.759592414501421e-06,-3.650443807985344e-06,11990,31.408347,68.69715,46.528949
0.1215851458695279,0.8680745530394491,-0.2331786474583961,-0.0054536093056869,0.0027032579958219,0.0099622597232954,-2.4563500468568706e-06,6.175167219960913e-06,-3.812760136445944e-06,11991,33.174758,69.409811,48.78087
-0.1150513286174001,0.6352674668555043,-0.0278690130209144,-0.0052740159228201,0.0039553992056544,0.0120588308581494,-2.242189536349725e-06,5.206260335871242e-06,-3.7641665761240448e-06,11992,36.010721,70.435867,52.098621
-0.4830166650522641,0.3612998890861987,0.1895557597093695,-0.0051481114979932,0.0050101279542736,0.0136209141426684,-1.8786325544761217e-06,3.984096398213613e-06,-3.4058925328822143e-06,11993,39.570711,71.78637,56.07084
-0.7852132061663,0.1559690959126014,0.457666222262304,-0.0051383790571253,0.0058158169238502,0.0145426759971832,-1.4074271619389132e-06,2.6499893557764582e-06,-2.7690985812904706e-06,11994,43.296898,73.417947,60.134222
-0.838371192655364,0.0079464781466113,0.7566739624597764,-0.0052124462371663,0.0063688182474418,0.014864043941737,-8.985021608560978e-07,1.3579225345611076e-06,-1.9812857318239496e-06,11995,47.367567,75.143768,64.369519
-0.7592651287886885,-0.13836213862586,0.9792974464739428,-0.0053512774834413,0.0066717145614965,0.014663756518545,-4.302047650743953e-07,2.2362139388191682e-07,-1.2241074586671583e-06,11996,52.106513,76.633416,68.997355
-0.6418043422307633,-0.2625709671529062,1.0652207473232935,-0.0055040615923049,0.0067566518397642,0.0141316225032194,-6.503354956176096e-08,-6.8812867649303e-07,-6.50648405084865e-07,11997,57.004488,77.659379,73.80911
-0.3394382722388376,-0.3144771182203623,1.0754634078736536,-0.0056454216541423,0.0066495394689115,0.0133744654975922,1.7852848092032477e-07,-1.2925114590548688e-06,-2.557796656630761e-07,11998,61.14186,78.313314,78.318898
0.065025253733479,-0.2980954697933932,1.0738373846187392,-0.0057852319579291,0.0063706616473739,0.0124116358526878,3.236761584718135e-07,-1.528117022204442e-06,7.180423173769717e-08,11999,64.872576,78.872832,82.83088
0.2787515154290878,-0.2671032218988453,1.085263062356951,-0.0059040446726644,0.0059774461189827,0.0113391530389276,4.2657042888694123e-07,-1.5192177547881337e-06,4.18600585174173e-07,12000,68.958948,79.507411,87.678983
0.3774877122191811,-0.2526090796927863,1.1251722078575566,-0.0059669427278171,0.0055633800850456,0.0102905065319093,5.588526157313177e-07,-1.542154916697e-06,8.266260586390683e-07,12001,73.735221,80.171701,93.019283
0.5553285889457382,-0.2446582539250795,1.1417897848876972,-0.0059614445341082,0.0051701372020588,0.0093377670545269,7.577664320441495e-07,-1.762184429827062e-06,1.3110400712239765e-06,12002,79.197084,80.76714,98.856724
0.6729421386981033,-0.2480683459986178,1.0733210204724175,-0.0058916898361135,0.0047891903772537,0.0085042475071424,1.0050167371993775e-06,-2.130524150735743e-06,1.8575628911573416e-06,12003,85.072547,81.235312,104.938452
0.6151697729330059,-0.269913544822237,0.9687826398195418,-0.0057706201634071,0.0044039672087534,0.0077835939125605,1.2541345755976291e-06,-2.55720756993565e-06,2.3842937338253144e-06,12004,90.959204,81.554954,110.977528
0.5299432718083867,-0.2871979423398728,0.9010506479503686,-0.0056301694994209,0.0039635550630902,0.007110231674197,1.4599575130387322e-06,-3.0027045808356685e-06,2.767178048870558e-06,12005,96.388949,81.720888,116.675878
0.504120511754039,-0.2848558849238214,0.8664747483647778,-0.0054877476029933,0.003446460384538,0.0064544046223364,1.596029636510882e-06,-3.377679508229208e-06,2.9742695408230302e-06,12006,100.95042,81.706441,121.535515
0.4469693807562947,-0.2802809223870733,0.8574167341328182,-0.0053467548601837,0.0028634509499466,0.0058181196983223,1.6676829206483908e-06,-3.581170250690371e-06,3.092268048554725e-06,12007,104.460339,81.584211,125.248822
0.2754347349552551,-0.2900036817997263,0.8751951601696651,-0.0052222147084822,0.0022039225275092,0.0051582626040737,1.7163470688369057e-06,-3.672947027333224e-06,3.217654161037919e-06,12008,107.247477,81.478395,128.162088
0.0508185588036421,-0.2952184040035473,0.8596482075500566,-0.0051342834853962,0.0014502493998781,0.0044009275995048,1.7935934150898789e-06,-3.804869450690893e-06,3.410229173326392e-06,12009,109.50657,81.390371,130.468719
-0.0704837001500984,-0.2841473943803994,0.7608720136620198,-0.0050932232913763,0.0005987066392025,0.0035172628765593,1.9215892216484182e-06,-3.994915929001976e-06,3.7211131198702e-06,12010,111.610866,81.310176,132.477675
-0.0838669929321991,-0.2960465779590148,0.637449832041089,-0.0051011596457873,-0.0003449074846067,0.0025180945145643,2.0756208159611663e-06,-4.122021393292872e-06,4.148718562259038e-06,12011,113.735155,81.270813,134.437414
-0.0785496714856843,-0.3481119456228954,0.569547641366658,-0.0051544693041151,-0.0013644726945399,0.0014263333759829,2.1981205078643287e-06,-4.106140000109729e-06,4.558422323787208e-06,12012,115.337397,81.269955,135.912378
-0.0845375935929035,-0.3940484132037349,0.5417766963445994,-0.0052389068391953,-0.0024271190331233,0.0002991187160568,2.248932141338456e-06,-3.974530128309484e-06,4.796010851954724e-06,12013,115.750821,81.33036,136.330904
-0.2468094232435983,-0.4108185062187631,0.501924355181627,-0.0053443055572138,-0.0035061218689864,-0.0008394213562809,2.233817765299302e-06,-3.770309774822835e-06,4.85598743076322e-06,12014,114.427789,81.468568,135.207699
-0.6374018248049266,-0.4203595160628246,0.4452599791132415,-0.00546329214054,-0.0045783006234373,-0.0020001085959558,2.1645301442126606e-06,-3.508971895144853e-06,4.785297499260662e-06,12015,111.800825,81.60726,132.821986
-1.0481534416678304,-0.4226146655825318,0.3842173639950667,-0.0055783110748213,-0.0056046903589593,-0.003177555210301,2.0219313687991954e-06,-3.2076730441734256e-06,4.518817394318684e-06,12016,109.767086,81.637687,130.753786
-1.33474747515639,-0.399082380865623,0.3133124823489615,-0.0056627756326866,-0.0065320636821246,-0.00436629700085,1.775146688968954e-06,-2.850922502270315e-06,3.951699125008326e-06,12017,108.372661,81.556855,129.202771
-1.5024824246479025,-0.363056282422326,0.1419011528186289,-0.0057042327669598,-0.0073289252318575,-0.005552998199876,1.4223900948092316e-06,-2.3471339293628974e-06,3.1257351050470003e-06,12018,105.443929,81.354643,126.398836
-1.5202538825386718,-0.3390349670393432,-0.2474681760180542,-0.0057039854891011,-0.0079849331428548,-0.0067094144218034,9.970697383810965e-07,-1.6275272052217534e-06,2.1996875600610872e-06,12019,98.519095,81.050912,119.888219
-1.4028867998471442,-0.3104051405213555,-0.7132419100304749,-0.005666698562793,-0.0084943558534563,-0.0078054428777103,5.484795228963774e-07,-8.078030170371434e-07,1.2615630323418664e-06,12020,88.673773,80.726511,110.37397
-1.215035605521421,-0.2590420157352545,-0.949801314425928,-0.0056076598262069,-0.0088672173671872,-0.008803225150761,1.4489051852710066e-07,-1.359741619697609e-07,3.644952240573526e-07,12021,78.834871,80.364494,100.416217
-0.943025509764835,-0.1922183528951152,-0.9619297848117933,-0.0055354244922257,-0.0091026668430687,-0.0096643842440585,-1.605952292123958e-07,2.610173873828037e-07,-4.006522214734839e-07,12022,71.094943,79.877799,92.061727
-0.6503449335285518,-0.0956081158944786,-0.9910303809654356,-0.0054516874696241,-0.0091884969640724,-0.0103498691805045,-3.99885019499549e-07,4.904235631646312e-07,-1.052092022846887e-06,12023,65.765711,79.200325,85.807563
-0.4267275364077758,0.0148833238747712,-1.0711594978791372,-0.0053667110073196,-0.0091245023528116,-0.0108087693537064,-6.640206415320167e-07,7.788141650832089e-07,-1.7299694287627883e-06,12024,61.429523,78.310328,80.652277
-0.0331169208621772,0.0848941645583356,-1.1474575675766898,-0.0052963717319584,-0.0089175443771173,-0.0109775359222007,-1.0136795722084929e-06,1.310879412653224e-06,-2.5222110510113288e-06,12025,56.626432,77.284526,75.603166
0.7124627108524513,0.1486742601210722,-1.295218968674784,-0.0052485621872018,-0.0085683746287096,-0.0108176529368435,-1.4346784916757316e-06,2.121005264336225e-06,-3.3672418229767484e-06,12026,51.185802,76.126638,70.37177
1.398559645592893,0.2609423030882044,-1.4699604367758785,-0.0052243857732263,-0.0080743621841624,-0.0103169024212281,-1.841637296707367e-06,3.058208632712505e-06,-4.07922380620417e-06,12027,45.973116,74.864174,65.315461
1.580188103030317,0.3648381109114355,-1.4993325831297917,-0.0052227868397094,-0.0074334834238531,-0.0094721474166437,-2.127678280569623e-06,3.856520023495797e-06,-4.4830500314287046e-06,12028,41.521541,73.61438,60.73592
1.420359157831649,0.444819912625679,-1.3890038252567738,-0.0052366953952487,-0.0066419521954627,-0.0083028481246651,-2.2433389629514317e-06,4.331833347924224e-06,-4.542157040108815e-06,12029,38.146267,72.479633,56.917251
1.2907695782948418,0.5767298955131392,-1.283866546543157,-0.0052651101600678,-0.0057098772388073,-0.0068291149836239,-2.234048177787994e-06,4.516159095340705e-06,-4.380822337734065e-06,12030,35.92648,71.486842,54.010529
1.2359804420186369,0.7062818819743975,-1.212515211769524,-0.0053134638613463,-0.0046640034309137,-0.0050748929491699,-2.1842047343334343e-06,4.557159753003367e-06,-4.175411925188716e-06,12031,34.68079,70.690084,51.996633
1.1148488359264987,0.7195992568609533,-1.0972433323401067,-0.0053846236036263,-0.0035415124791897,-0.0030960018603696,-2.141005640972307e-06,4.597489006899493e-06,-3.991577856253005e-06,12032,34.083364,70.133712,50.768258
0.8603728330860699,0.6598012552681498,-0.9414967715288745,-0.0054818788935187,-0.0023982167677441,-0.0009829559045964,-2.1163876831739984e-06,4.726653321684818e-06,-3.813349351840614e-06,12033,33.752753,69.850092,50.136645
0.5917240437579973,0.6117894406293088,-0.8125747244907575,-0.0056077518632205,-0.001266613407657,0.0011954049585776,-2.107022635397751e-06,4.886605286509494e-06,-3.6661374244488137e-06,12034,33.58912,69.82676,50.025996
0.4725109015673868,0.5774742503113721,-0.727693005674662,-0.0057629761861175,-0.0001543829379854,0.0033860866606105,-2.081282659207736e-06,4.890260709646911e-06,-3.56912772862242e-06,12035,33.884938,70.018855,50.547734
0.3829130880461305,0.5256188082650765,-0.6549065654480614,-0.0059491072938716,0.0009284480167874,0.00551539389391,-1.987892227318227e-06,4.59671858472652e-06,-3.448024274505338e-06,12036,34.823303,70.431597,51.698365
0.2253104673411979,0.4406948740258302,-0.5359406788588217,-0.0061679107378648,0.0019816335908855,0.0074974390709867,-1.7914247029175988e-06,3.969455811503588e-06,-3.2072631315721275e-06,12037,36.584553,71.097152,53.503768
0.1306395021613613,0.3535556529274835,-0.3171689618100836,-0.0064198500421316,0.0029880738328656,0.0092495828806531,-1.484584027339532e-06,2.994588503448367e-06,-2.833248705613561e-06,12038,39.096997,71.948205,55.958763
-0.0295450336760858,0.3032827605957863,0.007915719067202,-0.0067041752979198,0.0039096625139215,0.010686975973466,-1.0683023082528996e-06,1.698157627026118e-06,-2.322073627456593e-06,12039,42.604782,72.967445,59.369582
-0.4215098386818656,0.2807183663417912,0.3780053983139657,-0.0070188810313045,0.0047080655422822,0.0117167563643024,-5.563511161540858e-07,2.5753525806194e-07,-1.6035773081152575e-06,12040,47.120453,74.241677,63.740323
-0.7842268505389032,0.2589617018527297,0.675725697548764,-0.0073600237610719,0.0053351591910687,0.0122381157588839,-9.302119302829765e-09,-1.038294742310056e-06,-6.740001447065836e-07,12041,52.330095,75.571133,68.930321
-0.8849850298888332,0.2325948762521101,0.8066618831783073,-0.0077237382002809,0.0057645909103279,0.0122349677940874,4.731818660413201e-07,-1.9729475708216954e-06,2.88246006793707e-07,12042,57.757825,76.808036,74.444749
-0.8026483386332303,0.2138731495362998,0.8223928364485243,-0.0081058351762629,0.0059964116166335,0.0117911316553265,8.107081624039013e-07,-2.4671345802674067e-06,1.0639389886472878e-06,12043,62.477098,77.842732,79.309605
-0.6468637918508136,0.1941143210018068,0.869651449332572,-0.0084997190993032,0.0060365447866793,0.011062252961663,9.888630500481703e-07,-2.5073149695953906e-06,1.609815285038108e-06,12044,65.727627,78.619483,82.816269
-0.4473419350644876,0.1274350692141735,0.9474716215979876,-0.0088962028555042,0.0059093576612947,0.0103264680378587,1.0506605387307177e-06,-2.1514286994590854e-06,2.035634401613573e-06,12045,67.655643,79.238094,85.201921
-0.1596965505062777,0.0184107194060301,0.9516499935737396,-0.00928101545958,0.00563635807074,0.0097123930781524,1.0596360978967948e-06,-1.591139155395639e-06,2.426279598748547e-06,12046,69.278815,79.834007,87.450245
0.1762524091254664,-0.0523823992276233,0.9303157980417758,-0.0096330158243951,0.0052373026967498,0.009191679450778,1.0765294904732786e-06,-1.0751150419449024e-06,2.808411993215463e-06,12047,71.967187,80.465667,90.70229
0.3522906682190007,-0.0592996363549082,0.9803468237942776,-0.0099231186312209,0.0047554010730811,0.0087543543537664,1.1462770410547325e-06,-7.445694031272993e-07,3.2344272893697948e-06,12048,75.948997,81.109255,95.132926
0.3721193193390687,-0.058410860239378,1.0480631512925962,-0.0101108680691449,0.0042573192791575,0.0083320252802679,1.2741021230741903e-06,-5.927995163011943e-07,3.7358846153770862e-06,12049,80.282369,81.63239,99.924575
0.4432453990133259,-0.0716539263770798,1.0506746095124595,-0.0101778471793988,0.0037752343816889,0.0079098448140467,1.411905720459299e-06,-5.608858896344564e-07,4.2003150665964735e-06,12050,84.798893,81.995351,104.870828
0.5164121298152549,-0.0799842482261449,1.0062495350353078,-0.0101296716116967,0.0033074122995364,0.0075431104112406,1.5146635715713396e-06,-6.160878816412035e-07,4.501194788238385e-06,12051,89.599967,82.24856,109.996451
0.4657900335868861,-0.0876585034690433,0.9545868976545387,-0.0099785333267526,0.0028463784524033,0.0072420662950577,1.5928309033406307e-06,-7.277670828015071e-07,4.692559579763826e-06,12052,94.51745,82.388133,115.13306
0.4043540107272366,-0.1057677297767321,0.8958586007590277,-0.0097552437813085,0.0023612446904786,0.0070006811602951,1.6640467040182289e-06,-8.477991930154683e-07,4.866074572807387e-06,12053,99.190331,82.40874,119.891803
0.3894409576796355,-0.1399927330469915,0.8326883869650298,-0.0094765117552383,0.0018389755955951,0.006804062660691,1.7155776858915735e-06,-9.693555005196737e-07,4.983225017223291e-06,12054,103.02784,82.349166,123.691328
0.3091053723284181,-0.1902879459160505,0.7771125604161893,-0.0091442203972031,0.0012858329908798,0.0066105613550101,1.7416545917654405e-06,-1.1120904867420664e-06,5.001130336932171e-06,12055,105.988811,82.252097,126.623788
0.1404268619759445,-0.2327524712555906,0.7202029729948741,-0.0087728778508459,0.0006914592326486,0.0063619297104496,1.765807299797088e-06,-1.2485483208895222e-06,5.007806199431288e-06,12056,108.125429,82.12001,128.781076
-0.0197639625378751,-0.2512586388684355,0.6387820827603551,-0.0083829555819645,3.732080968272145e-05,0.0059731418676553,1.805702608358979e-06,-1.333410355573763e-06,5.096930284773059e-06,12057,109.788152,81.973452,130.474936
-0.0910477239082435,-0.2506492073296258,0.5397395469346288,-0.0079859376916376,-0.0006810690795299,0.0054032336990655,1.8324990543276476e-06,-1.3460744732090487e-06,5.190710053959107e-06,12058,111.294018,81.806833,131.962451
-0.0967993517276291,-0.2366714773251577,0.4658954725260077,-0.0075866362755907,-0.0014568471160112,0.0046601557020245,1.8005507461764607e-06,-1.2619613259912798e-06,5.154386314577882e-06,12059,112.591317,81.643224,133.158956
-0.1284758599780137,-0.2493673527440481,0.4181317162684212,-0.0071857484703462,-0.0022761760745767,0.003758462643416,1.7045870323764957e-06,-1.063107239937134e-06,4.988631532643154e-06,12060,113.146865,81.48863,133.653327
-0.2230756451662733,-0.3492621024273458,0.3693274506905779,-0.0067756603159919,-0.0031114692353692,0.0027435101568596,1.5799078903697963e-06,-8.199550531783361e-07,4.767953496783054e-06,12061,112.524939,81.356022,133.077764
-0.3210327869202145,-0.5041123517483747,0.3083576406805302,-0.0063558374416347,-0.0039420013872388,0.0016441740520628,1.4606564757779685e-06,-6.459155784041412e-07,4.523319402681558e-06,12062,111.035128,81.262563,131.635997
-0.4120253937289061,-0.5975799972299772,0.1856899190204698,-0.0059326376713002,-0.0047526912632541,0.000471684836742,1.3415094261674807e-06,-5.115800238790474e-07,4.2474063693627765e-06,12063,109.590032,81.209458,130.091866
-0.6573563695963744,-0.5888130532313329,0.0309227492275281,-0.0055080431517367,-0.005516653763578,-0.000733482046987,1.1932478880979432e-06,-2.715333440339741e-07,3.939516024244762e-06,12064,108.96208,81.103344,129.187474
-1.048557989755577,-0.5417249694855082,-0.0558512655264289,-0.0050828951382874,-0.0061976710333022,-0.0019086599523803,1.0055994137763405e-06,1.300146101013e-07,3.604107355207495e-06,12065,108.183998,80.953563,128.12202
-1.2604455310422462,-0.5033195975582773,-0.2057188252858571,-0.0046589226651342,-0.0067724991323608,-0.0030087041363422,7.708102971360719e-07,6.725084507349008e-07,3.197094261924812e-06,12066,105.156457,80.827122,124.896806
-1.2237976952187273,-0.4778597028701014,-0.5736832323498574,-0.0042374995205206,-0.007229719682334,-0.0039998794441632,4.592330171666112e-07,1.3928398813653534e-06,2.652369773199151e-06,12067,98.725376,80.775977,118.275554
-1.108019857960458,-0.4886436966939088,-0.939376105829162,-0.0038206385198583,-0.0075602834653224,-0.0048419843025833,6.252097007592327e-08,2.294999246868568e-06,1.9665208578046706e-06,12068,90.201419,80.716799,109.392097
-0.8039443574679308,-0.5135803682703168,-1.039137044454907,-0.0034111590233143,-0.0077639367845635,-0.005495345309605,-3.7352593236068606e-07,3.24043311248265e-06,1.200543003994269e-06,12069,81.974591,80.416907,100.521064
-0.3031226274314549,-0.439961755202931,-0.97296116442675,-0.0030080428117557,-0.0078358679431858,-0.0059436239037979,-7.911594795991388e-07,4.105374750160196e-06,4.446505102528818e-07,12070,75.881414,79.839151,93.607251
0.0595409612394428,-0.2566078564825538,-1.011939805919789,-0.0026059813892169,-0.0077667553655913,-0.0061970756060756,-1.1705717508994936e-06,4.878209441752956e-06,-2.53878996098578e-07,12071,71.412778,79.12618,88.429616
0.2088031580114275,-0.1155056568155017,-1.2578444322937852,-0.0021969648131853,-0.0075554760824115,-0.0062912849308059,-1.5167391983821577e-06,5.527811857445411e-06,-9.355000851108936e-07,12072,67.170935,78.363451,83.717655
0.3626984528790936,-0.0875733882483844,-1.5329980217683137,-0.0017681142934221,-0.0072072949125169,-0.0063013018460709,-1.822354177590844e-06,5.980472622103629e-06,-1.6308468786573614e-06,12073,63.005827,77.562265,79.063245
0.5693485556275613,-0.0915114705195743,-1.608028012931254,-0.0013149562084376,-0.0067246504146169,-0.0062525079960318,-2.0865830734284957e-06,6.261849393027779e-06,-2.319408228048372e-06,12074,59.509975,76.78482,74.776725
0.7323078381988786,-0.0750143408558902,-1.5112988924722204,-0.0008422732429064,-0.006109281172542,-0.0061188226988287,-2.33847279211318e-06,6.512022855529816e-06,-2.991183556298949e-06,12075,56.72474,76.049421,70.957865
0.7898815660483343,-0.0591364595565783,-1.4072848050144924,-0.0003564505551988,-0.0053670299259385,-0.0058779170927743,-2.5928081576279066e-06,6.7974530137156686e-06,-3.6440979052232286e-06,12076,54.240823,75.375141,67.476342
0.7480084061142497,-0.050429996788685,-1.3228579132945688,0.0001299569935896,-0.0045071654124108,-0.0054858188596737,-2.8173896224540056e-06,7.0508524154467535e-06,-4.22505104478689e-06,12077,51.71563,74.81835,64.107127
0.6791383134796105,-0.031352558496483,-1.2176312762499188,0.0006052671481116,-0.0035543667179004,-0.0049351335407137,-2.959333050558349e-06,7.204803227212874e-06,-4.609235094031324e-06,12078,49.274172,74.365125,60.776763
0.5848836300557052,-0.0097221368108732,-1.1236658915349036,0.0010583387007078,-0.0025529958147549,-0.0042635737003996,-2.986457878359597e-06,7.180526371559054e-06,-4.741074535180111e-06,12079,47.476846,73.989884,57.826203
0.4363107501807964,-0.0361465020307041,-1.030047137603999,0.0014699988211978,-0.0015659279860882,-0.0035093627226823,-2.913900153474264e-06,6.86993166881498e-06,-4.743255337477179e-06,12080,46.755996,73.730322,55.589732
0.3330930508623588,-0.130269625394492,-0.7603156840703695,0.0018129839971699,-0.000684337736849,-0.0027318785820115,-2.797230476502671e-06,6.298416430329798e-06,-4.781477783728451e-06,12081,46.825513,73.678938,53.970946
0.3050525194180723,-0.215831929586238,-0.2364224060262479,0.0020896650530509,5.0743560393812746e-05,-0.0019729613444465,-2.7062129744764326e-06,5.637536598518011e-06,-4.970432020829823e-06,12082,46.923095,73.86324,52.661273
0.257792228302083,-0.2379532291844097,0.246842422788299,0.0023354523658463,0.0006528326719323,-0.0012529450259432,-2.6906975418709724e-06,5.01252937335209e-06,-5.388943797917823e-06,12083,46.597873,74.15882,51.543885
0.2006481615639423,-0.2569647539481798,0.4120127349617107,0.0026046576458522,0.0011468818059702,-0.00060767105336,-2.7493839454472037e-06,4.394140086971427e-06,-6.040491627887288e-06,12084,46.458269,74.419962,50.922107
0.1898445936494908,-0.3035640112206381,0.4236599192184941,0.0029873538581237,0.0015964697387874,-7.926799923298113e-05,-2.835455159344811e-06,3.672792867388501e-06,-6.832391018349642e-06,12085,47.065517,74.632363,50.897061
0.1742098717785241,-0.3481001902708943,0.5384533035604272,0.0035169188163194,0.0020209112791004,0.0002880079865484,-2.885752304350144e-06,2.7994068006396284e-06,-7.594911909078823e-06,12086,48.506605,74.863266,51.527141
0.0744441543774684,-0.4240770121192917,0.7248099017305769,0.0041646298880762,0.0023899958162507,0.0004420669812358,-2.847893917516145e-06,1.7940218543979494e-06,-8.156191091578045e-06,12087,50.948527,75.150344,53.103873
-0.0761432080604095,-0.5092043696230417,0.8440136487101756,0.0048953561607242,0.0026861847772953,0.0003250738421251,-2.704879754607008e-06,6.733610931365997e-07,-8.457126797513333e-06,12088,53.840233,75.687268,55.085917
-0.1706982872284461,-0.5165520372302014,0.854482872474983,0.0056371282754743,0.0028815492633708,-0.0001293750772483,-2.4889581344722943e-06,-5.020165664445423e-07,-8.573400918325015e-06,12089,55.909145,76.569877,56.150259
-0.1762523013346121,-0.5463953854380375,0.8034454213387183,0.0063638270920209,0.0029693905572453,-0.0009236960027443,-2.263717727559716e-06,-1.6032657755580092e-06,-8.639529278346202e-06,12090,56.370674,77.570892,55.394106
-0.1445573999322006,-0.7307606332418575,0.7599070884712761,0.0071025110661378,0.0029729378037449,-0.0019847294807165,-2.0772364975377464e-06,-2.5319801644923863e-06,-8.735053511248787e-06,12091,55.806613,78.082148,53.228174
-0.115311665613936,-0.9213991331623224,0.7407008733139581,0.0078700090966849,0.0029151041679913,-0.0031892805243766,-1.947548256777795e-06,-3.2620565854856155e-06,-8.86999089513737e-06,12092,54.703723,77.967133,50.247313
-0.0945707616530133,-0.9167925404862332,0.6859674141321457,0.008697462897742,0.0028314494981474,-0.0043260646939288,-1.8879530553890105e-06,-3.820510976884057e-06,-9.099881319326644e-06,12093,52.850248,77.651885,46.673946
-0.0744372426784976,-0.7548999658461564,0.515004384750043,0.009592333727517,0.0027495896810999,-0.0052975427113015,-1.8958205418304012e-06,-4.276159088864813e-06,-9.485824538277912e-06,12094,50.715683,77.406003,43.078567
-0.0490021718216249,-0.5600824396760041,0.2451721383527723,0.0105298517271416,0.0026868472690207,-0.0061271189559419,-1.921315672677768e-06,-4.733213099710221e-06,-9.945671810942363e-06,12095,48.808632,77.246921,39.721951
-0.0416220587475164,-0.3826729784314083,-0.0257306894042008,0.011488390425225,0.0026726146956391,-0.006830330374641,-1.8958752118943447e-06,-5.298547124133493e-06,-1.0315617563582075e-05,12096,47.105126,77.026701,36.330388
-0.0611928477494841,-0.2489275190635875,-0.2590919037757567,0.0124354091590587,0.0027442142132339,-0.0074739789275042,-1.7902079640029118e-06,-5.965327168951667e-06,-1.048583772770907e-05,12097,45.553579,76.684564,32.824383
-0.0749597517758907,-0.1662168102208488,-0.4332901621543527,0.01335323236151,0.0029153613074823,-0.0080667192297395,-1.618301549256362e-06,-6.598829556683265e-06,-1.041137570973096e-05,12098,43.847944,76.300815,28.976539
-0.0664827375606155,-0.1159246923562874,-0.4934307924616881,0.0142436849804733,0.0031754251502926,-0.0085447744257024,-1.3933696755708215e-06,-7.099826388290295e-06,-1.0068220683428224e-05,12099,41.957019,75.99795,24.778013
-0.0462951044721969,-0.0731288495103479,-0.4680658591859641,0.0151047201067752,0.0034987204202274,-0.0088702218198061,-1.1145059781167918e-06,-7.460789273025332e-06,-9.445772716190362e-06,12100,40.057627,75.808542,20.391326
-0.0270226627011204,-0.0084291647042605,-0.4416018943433625,0.0159390450974553,0.0038315737346048,-0.0089993907820703,-7.967245824778174e-07,-7.70895454147554e-06,-8.613669032492169e-06,12101,38.278283,75.658617,15.960499
-0.0194680837852672,0.0834344662505439,-0.4207215961116796,0.0167425503760065,0.0041519403246018,-0.0089265837020021,-4.713236254774137e-07,-7.89096928846863e-06,-7.706384053500118e-06,12102,36.814939,75.441662,11.6624
-0.0239738436551517,0.1821297888856522,-0.3770113002752339,0.017501397922836,0.0044707868154515,-0.0087012809581957,-1.494900202663941e-07,-8.046953472947555e-06,-6.779190369472661e-06,12103,35.793205,75.160321,7.700441
-0.0350326654046936,0.2560101530796488,-0.3276522649188723,0.018204130067485,0.0047920560656851,-0.0083907696132132,1.8117705782718962e-07,-8.18592782070963e-06,-5.789977489697509e-06,12104,35.004119,74.924308,3.950729
-0.0544068402041696,0.2848072052104716,-0.2994187664121363,0.0188375681544849,0.0051286401473077,-0.0081048743979988,5.178840548532658e-07,-8.301244822128628e-06,-4.743568646551686e-06,12105,34.254512,74.780787,0.219196
-0.0710821134625161,0.2946938877751383,-0.2889985863782299,0.0193962315699537,0.0054812191821979,-0.0078925351967317,8.303705801173359e-07,-8.386296768793934e-06,-3.7444834657345977e-06,12106,33.611701,74.719056,-3.456585
-0.0736909441301399,0.3131219212553584,-0.2737855861231497,0.0198848820108379,0.0058335214009916,-0.0077341295526154,1.0985123496599549e-06,-8.443107939753612e-06,-2.87653705077888e-06,12107,33.322651,74.701856,-6.92132
-0.0922087848802087,0.3234061440373352,-0.2402379523390052,0.0203120385964612,0.0061738464771081,-0.0076108882384995,1.3324160392736223e-06,-8.500538467866463e-06,-2.1356557015495845e-06,12108,33.054811,74.729398,-10.357059
-0.1431425003612612,0.3041600390624669,-0.2058492441723791,0.020694755196308,0.0064879502829696,-0.0074719059994653,1.5545901408243938e-06,-8.604111449691785e-06,-1.4753808515661477e-06,12109,32.640075,74.754445,-13.783878
-0.1973203526265663,0.2653025429348825,-0.179949818027227,0.021042113881697,0.0067623875291322,-0.0072962293223914,1.787407889620223e-06,-8.742790901556287e-06,-7.992191658092506e-07,12110,32.172157,74.775014,-17.207058
-0.2449019862092889,0.2349838015150074,-0.1235362263123357,0.0213546853772402,0.0069865451677091,-0.0070993914492449,2.0528018428957684e-06,-8.833003651424844e-06,4.1918600560788914e-08,12111,31.607143,74.808332,-20.768672
-0.2912225710054526,0.2240307019932707,-0.0291665967969118,0.0216371744223687,0.007144926565278,-0.0068757666044546,2.3662374774026708e-06,-8.81330033016554e-06,1.1455051552273293e-06,12112,31.087563,74.928901,-24.387487
-0.3121139076904122,0.2124036621799767,0.0143084029540672,0.0218944281076008,0.0072179082260162,-0.0066142643057593,2.713470205548771e-06,-8.714463736048178e-06,2.4271186812662363e-06,12113,31.042666,75.318022,-27.889641
-0.2868343018721101,0.177446156642772,-0.0535415311430729,0.0221317009779614,0.0072034958781369,-0.0063133139438538,3.049433890169249e-06,-8.645532321474299e-06,3.645239629568747e-06,12114,31.294381,75.799328,-31.307416
-0.2603150542850438,0.1325143680971227,-0.1644060948906739,0.0223560803608715,0.0071191690537979,-0.0059754138150876,3.340982056675363e-06,-8.733624180334371e-06,4.594621958098855e-06,12115,31.803893,76.109496,-34.375146
-0.2627841113176914,0.110580889707172,-0.2410439610043006,0.0225737071865527,0.0069948695031015,-0.005611694849316,3.584986418791839e-06,-9.06693368500969e-06,5.199280934101785e-06,12116,32.655362,76.113338,-36.77784
-0.189141896245815,0.0779369551949529,-0.2784512784545324,0.0227902773826671,0.0068830242009608,-0.0052457243196274,3.786801556114823e-06,-9.630443018108729e-06,5.488708727939214e-06,12117,33.741409,76.030963,-38.585544
0.0309648804410442,-0.0270889887492999,-0.2752628212696716,0.0230141335212146,0.0068004745306722,-0.0048942424202503,3.956678832371159e-06,-1.025977137766726e-05,5.627271449346311e-06,12118,34.60836,76.073043,-40.351926
0.2500450016590446,-0.1446345904623736,-0.2336720260144494,0.0232563566125631,0.0067252871541938,-0.0045691129832395,4.125987776133762e-06,-1.0722603392104753e-05,5.906373908033855e-06,12119,35.102194,76.273703,-42.392563
0.3101049332447336,-0.1786188949709587,-0.1880133839625166,0.0235302453435548,0.0066313194321533,-0.0042912992800668,4.332423035212436e-06,-1.083715916782662e-05,6.593140131781555e-06,12120,35.359909,76.613505,-44.742996
0.2653892891575926,-0.157291125854434,-0.1527474599526703,0.0238527576795217,0.0064691583872819,-0.0040884888186327,4.579483247254471e-06,-1.0527801995886205e-05,7.744010973345007e-06,12121,35.790727,77.035834,-47.237516
0.2428684430399159,-0.1408530330957662,-0.1171757575247708,0.0242153986382682,0.0062225971328166,-0.0039748960157534,4.836823563116966e-06,-9.879178707322837e-06,9.183531664786764e-06,12122,36.940056,77.43595,-49.437371
0.2400839838291866,-0.1219151153424927,-0.0877485906161737,0.0245797719685876,0.0059140511790104,-0.0039513726163013,5.0713339942131214e-06,-9.090303066485884e-06,1.065441742531498e-05,12123,38.815769,77.799848,-51.16778
