AccX_processed,AccY_processed,AccZ_processed,GyrX_kalman,GyrY_kalman,GyrZ_kalman,MagX_processed,MagY_processed,MagZ_processed,PacketCounter,Roll,Pitch,Yaw
-0.0586510439411588,0.6742184865435487,-0.0749468143098373,0.0015784367632392,0.0003306092790178,0.0005517637237848,3.603525481099088e-07,1.4717801567438354e-07,4.7334424090168267e-07,11582,0.37493,1.29949,10.098699
-0.1859510869029981,1.9816889060698093,-0.2364163090778772,0.0016174955992983,0.0003488281890244,0.0006805146764016,3.288271232401635e-07,1.4198562517743273e-07,5.910680659088013e-07,11583,0.364448,1.309072,10.112043
-0.2483442626620529,2.597482493312774,-0.3137344447085591,0.0015760644289992,0.0003565399847028,0.0008527045047213,3.109702942781402e-07,1.3564407528168798e-07,6.669272728835105e-07,11584,0.367179,1.318939,10.116574
-0.1886443011341004,1.8770210692886604,-0.2339112644601556,0.0014924273709005,0.0003577534521599,0.0010336501243061,3.0678206122383905e-07,1.2815336598714932e-07,7.009218618258103e-07,11585,0.367666,1.330347,10.112294
-0.1930477418461891,1.904657520677416,-0.234711358182144,0.0013886238062411,0.0003548474526808,0.0012047879728856,3.162624240772595e-07,1.195134972938167e-07,6.930518327357004e-07,11586,0.360351,1.343082,10.131311
-0.1889807919461988,1.7843560888868355,-0.2210729113638241,0.0012764931415701,0.0003491873008353,0.0013576923897375,3.7348003952422034e-07,8.566662681725638e-08,5.110743451318021e-07,11587,0.35125,1.350564,10.149601
-0.1725432231476566,1.5266718759460018,-0.1881426387392329,0.0011658005936242,0.0003418116423737,0.0014851498333127,4.4312758691830934e-07,7.204625523591594e-08,3.61966800629347e-07,11588,0.344687,1.350857,10.167343
-0.1654398142526147,1.444096087147131,-0.1696459475862159,0.0010624936952215,0.0003333066484061,0.0015840428743171,4.812863875972635e-07,6.654037886317167e-08,2.158446580099077e-07,11589,0.339924,1.359443,10.185042
-0.145303775011861,1.2431630440650254,-0.1410804380629119,0.0009707647300114,0.0003241482147986,0.0016522470193502,4.27658819484537e-07,6.122237668723824e-08,1.0274472352854505e-07,11590,0.326607,1.370032,10.172065
-0.1269587494422804,1.0684954075241777,-0.1174505276016485,0.0008941952167786,0.0003148196651234,0.0016877281757368,3.341963756076964e-07,5.7436104684598814e-08,2.4831856969140205e-08,11591,0.32156,1.377211,10.17184
-0.1132142398050568,0.9222185719414496,-0.0925265723106005,0.0008328782151873,0.0003055413615121,0.0016931758009258,3.220634963174314e-07,5.0237389775320216e-08,-1.0268541940579127e-07,11592,0.31573,1.385809,10.205126
-0.0961446608660999,0.7300269140170387,-0.056012030542938,0.0007837951078891,0.0002963689690909,0.0016757582957283,4.054341614571756e-07,3.842634102072533e-08,-3.159148152605805e-07,11593,0.31356,1.402264,10.26062
-0.0578034638026655,0.5663756570701649,-0.0162263926580252,0.000746238860857,0.0002873946620672,0.0016382196558653,4.887019440253795e-07,2.68721755030186e-08,-5.170961340871313e-07,11594,0.334331,1.410901,10.267848
0.0211945840205938,0.3849836271427025,0.0285885438569929,0.0007216671442171,0.0002787337028906,0.0015791968047252,5.491009192118642e-07,7.256273966169349e-09,-6.543699230102926e-07,11595,0.364607,1.378791,10.296449
0.1004283931605734,0.2002723770909243,0.0739554934987472,0.0007112723441344,0.0002704997891874,0.0014975443692112,6.176336614609115e-07,-3.422175559582076e-08,-8.03882733860296e-07,11596,0.364415,1.284873,10.452345
0.1335529704491172,0.0135569092022363,0.1225502986114804,0.0007174163781831,0.0002628582176556,0.0013899794632605,5.756085199247361e-07,-9.210065282649157e-08,-9.73966651145739e-07,11597,0.368658,1.147962,10.635463
0.1373172272375979,-0.1873102664226323,0.17592350419834,0.0007395045703018,0.0002558358700929,0.0012578921594701,2.922301293909921e-07,-1.469977746546374e-07,-1.082831481940166e-06,11598,0.401485,0.997212,10.721894
0.1450026738277584,-0.3627315429248294,0.2173096616384987,0.0007735008703982,0.0002493152801281,0.001108195725511,-1.4808428529780206e-07,-1.940868101122901e-07,-1.1325305603835772e-06,11599,0.463528,0.84132,10.753371
0.140377958943067,-0.5122311826567325,0.2335675903138744,0.0008146872651493,0.0002431577665808,0.0009487609698108,-5.891692253345819e-07,-2.3878724548475293e-07,-1.1640238370605766e-06,11600,0.545024,0.659913,10.695956
0.0895702370565648,-0.6651013075427397,0.2356835801152857,0.0008561108404044,0.0002371424700596,0.0007909688825056,-9.320809647823316e-07,-2.719124175241709e-07,-1.1431075915084436e-06,11601,0.617381,0.456257,10.625869
0.0230345041464137,-0.8270657068834543,0.237711783601498,0.0008941857969431,0.0002311599614844,0.0006407678052017,-1.0829694853573272e-06,-2.8411139600119305e-07,-1.0717342009667033e-06,11602,0.709954,0.243908,10.428449
0.0224824970899345,-0.9875186653816214,0.2397184878151327,0.0009292348602824,0.0002252341099443,0.0004977944729684,-9.64835990197828e-07,-2.859243534259717e-07,-1.0921335482067512e-06,11603,0.791648,0.087269,10.173729
0.1093908192073843,-1.1479093616660996,0.2485391072750744,0.0009617101584022,0.0002193872850301,0.0003614573198904,-5.897965677356365e-07,-2.8229277944348844e-07,-1.2765095870692652e-06,11604,0.839149,-0.007495,9.748522
0.2136642476512572,-1.3068668289649563,0.2442062877436117,0.0009940775607647,0.0002137055729354,0.0002279178148394,-6.535925233045464e-08,-2.5470347906614866e-07,-1.449608474762434e-06,11605,0.960891,-0.05285,9.184887
0.2508019707434865,-1.4516333708087403,0.1728184671351801,0.0010280426687065,0.0002082544496096,9.449392060754242e-05,4.952232675945656e-07,-2.0091330699332442e-07,-1.483794482987664e-06,11606,1.048133,-0.023196,8.704467
0.1883594225636471,-1.5793788474781545,0.069833775522054,0.0010644307814201,0.0002030746781746,-4.015304643081836e-05,9.880828230157184e-07,-1.558198525903112e-07,-1.5011618531363847e-06,11607,1.111477,0.107031,8.299382
0.0967847031682271,-1.698050375214195,0.0260630936004805,0.0011064111591296,0.000198288498343,-0.0001811803123157,1.2786279701535082e-06,-1.4173373258037162e-07,-1.5611784321593217e-06,11608,1.214727,0.311623,8.085122
0.0897593636505162,-1.816199882035414,0.013339677328847,0.0011592082084358,0.0001940930936628,-0.0003371295422315,1.2907899654999105e-06,-1.4532624148056085e-07,-1.5371135455722777e-06,11609,1.385585,0.529117,8.120649
0.1604174224459386,-1.934887453869762,-0.025649738456679,0.001224711668721,0.0001905694450931,-0.0005113247473032,1.06668088499756e-06,-1.5560180605908105e-07,-1.4108352386312418e-06,11610,1.556939,0.710025,8.437995
0.2093186108063845,-2.036543306238083,-0.0544250026189138,0.001301580183601,0.0001876862037541,-0.0007020802344237,6.787910771344129e-07,-1.7397616781451617e-07,-1.3219692963826728e-06,11611,1.751721,0.822044,8.83417
0.2158672810563608,-2.117359040872846,-0.0670978006017672,0.0013875667397252,0.0001853860761086,-0.0009064898874468,1.848537999050178e-07,-1.924352577582491e-07,-1.2874298552033533e-06,11612,1.971983,0.891073,9.156269
0.2158937632423937,-2.2023842451504803,-0.0964590203256915,0.0014778107818031,0.0001835268391594,-0.0011177745650075,-3.224452463523663e-07,-2.0122626068885145e-07,-1.185007670968718e-06,11613,2.209784,0.945231,9.357009
0.2009456252966338,-2.2935186611631075,-0.1077775390661863,0.0015686271187613,0.0001820164443491,-0.0013314586132628,-7.426638203487924e-07,-2.0788825208584579e-07,-1.0021969935385784e-06,11614,2.421518,0.989564,9.523676
0.1692455906498168,-2.356586538721912,-0.0922639583400901,0.001657418085449,0.0001808137468233,-0.0015453860998777,-1.0666717271693017e-06,-2.1952066343516846e-07,-7.899676201813702e-07,11615,2.638976,1.026504,9.811922
0.1442555021632178,-2.371773766063896,-0.0998368378907078,0.0017390539905075,0.0001798056563803,-0.0017541408930591,-1.3698542744270396e-06,-2.2177760246928643e-07,-4.74962400773697e-07,11616,2.871441,1.083664,10.074754
0.1222159425990627,-2.358404152918032,-0.1191350885671123,0.0018063063076954,0.0001788287440823,-0.0019500330389847,-1.6986997216476358e-06,-2.0360412211528885e-07,-1.2197639025434006e-08,11617,3.133041,1.146815,10.276457
0.0961517197046021,-2.352995019195542,-0.1251651776613943,0.001855221994524,0.0001777974570204,-0.0021289060308893,-1.9923704787356227e-06,-1.7804153212629086e-07,4.559328816778427e-07,11618,3.365771,1.192311,10.542164
0.0700329052530802,-2.372393574034102,-0.1418566537086226,0.0018849651058652,0.0001766963393984,-0.0022897849043962,-2.1831827654808663e-06,-1.591411072981767e-07,7.84598805151412e-07,11619,3.588338,1.25162,10.748183
0.0480223832018362,-2.3965057206998357,-0.1775492397152026,0.0018955428524919,0.0001755336345368,-0.0024327806072027,-2.350108071533895e-06,-1.5235908846489705e-07,9.557947265890984e-07,11620,3.824138,1.337961,10.856222
0.0420382193008282,-2.397703409239175,-0.2240994449241997,0.0018894712040913,0.0001743800318516,-0.0025608482576344,-2.614680696585326e-06,-1.666787425881178e-07,9.562857141378177e-07,11621,4.075736,1.413288,10.936734
0.0498992828290012,-2.370626035287991,-0.2784330116346787,0.0018677106291683,0.0001732635391912,-0.0026750174948169,-2.959670965009421e-06,-1.9675281139786518e-07,7.968954291762504e-07,11622,4.298049,1.508947,11.014418
0.0568026265706553,-2.329692174464137,-0.3271336065992772,0.0018296634316132,0.0001721698076442,-0.0027744125284213,-3.292369745561427e-06,-2.097507653622453e-07,6.741677298727093e-07,11623,4.522981,1.671572,11.0006
0.0565852329866993,-2.2931745584705,-0.3558936369498128,0.0017767661548971,0.0001711302222416,-0.0028602554001906,-3.550146396417641e-06,-1.8320160642272146e-07,8.096648850856289e-07,11624,4.747341,1.883902,10.990376
0.035564881266142,-2.2603896432939363,-0.367329467226834,0.0017118178330601,0.0001702030902123,-0.002935020375039,-3.657303643719344e-06,-1.3514732029357202e-07,1.1290685536952185e-06,11625,4.954912,2.083843,10.871827
-0.007942744296602,-2.21257220722904,-0.3650621474016359,0.0016360884065614,0.0001694183498315,-0.0029999118635964,-3.526867615943225e-06,-9.767443714291521e-08,1.3540909706726904e-06,11626,5.103629,2.252401,10.595332
-0.036122353778275,-2.144910499463922,-0.3444034810743808,0.0015496749729165,0.0001687867730443,-0.0030552924482732,-3.2040488802771784e-06,-8.246443248721308e-08,1.3595363683434791e-06,11627,5.24734,2.400765,10.188413
-0.0280287180410917,-2.072058379031592,-0.3139312619705049,0.0014525585108302,0.0001683166917471,-0.0031014690415852,-2.9040193311065614e-06,-8.492376630595862e-08,1.2519649144730823e-06,11628,5.383118,2.555409,9.843139
-0.011034640738697,-1.9989560497679533,-0.2815843853560707,0.0013439126438162,0.0001680018140522,-0.0031381541741975,-2.7929594769157093e-06,-9.774103479613713e-08,1.162356632079162e-06,11629,5.536232,2.762173,9.55797
-0.0019118921975021,-1.9195782629603584,-0.2438264741293742,0.001224972414128,0.000167882436302,-0.0031672863607768,-2.8135408577838537e-06,-1.0481239722549692e-07,1.1356601512285654e-06,11630,5.679919,3.002082,9.283316
0.0085300590442903,-1.8346208087318432,-0.2080789186155912,0.001099372909979,0.0001680530929867,-0.0031934171379156,-2.811356224626172e-06,-8.638118814612221e-08,1.2032959342091268e-06,11631,5.822683,3.272481,8.898176
0.0134078974531171,-1.7443807654555714,-0.1823806638158949,0.0009715371866349,0.0001686316217883,-0.0032223481036019,-2.7009131916266366e-06,-4.49468976063148e-08,1.373201172126951e-06,11632,5.947035,3.579502,8.52853
0.0117836436113373,-1.6506304184214882,-0.1485829100563928,0.0008478347698867,0.0001697856171144,-0.0032624077707626,-2.4429879334411944e-06,-4.617345155047508e-10,1.5585323057348885e-06,11633,6.024989,3.946837,8.165289
0.0396954713022835,-1.5635251927848228,-0.0894970178511683,0.000731616151027,0.0001716041304121,-0.0033174413202524,-2.0312481676123803e-06,4.083726958143212e-08,1.6636943076369523e-06,11634,6.071969,4.36654,7.688517
0.1077109211457519,-1.482769083633921,-0.0305563184642889,0.0006228349161858,0.0001740888388889,-0.0033862836421015,-1.5486607762274429e-06,8.30247549632371e-08,1.6769259803698262e-06,11635,6.090108,4.783083,7.141717
0.1504929450589545,-1.3944920648170354,0.0051466653650009,0.0005212410873853,0.0001772337455054,-0.0034668838588427,-1.1228835044421442e-06,1.1978079767048916e-07,1.631741613043746e-06,11636,6.06947,5.148805,6.659937
0.1386564327915936,-1.2957964860370823,0.0340628634709184,0.0004247388329285,0.0001809826015523,-0.0035538471407498,-8.19200416167044e-07,1.420162791490232e-07,1.5570980029395982e-06,11637,6.028215,5.514151,6.342824
0.1636336686013791,-1.19669282137149,0.0670030560632369,0.0003320060152782,0.0001852980957139,-0.0036420515495079,-6.162999034987458e-07,1.526144006195862e-07,1.4747037467811722e-06,11638,5.985759,5.943118,6.116291
0.2482174441814718,-1.098847451882072,0.0956085925230853,0.0002425957817442,0.0001901633940192,-0.0037264273263517,-4.661661069403829e-07,1.595118228153016e-07,1.404167039740137e-06,11639,5.926724,6.433167,5.924415
0.2909342542736352,-1.0013236910628232,0.1174218841450426,0.0001540413906341,0.0001955054801784,-0.0037973635331451,-3.253498041921954e-07,1.6399750131025478e-07,1.337613319715037e-06,11640,5.849234,6.9422,5.677488
0.2759258406343216,-0.9062399544441324,0.1362340098344434,6.216932021360037e-05,0.0002012022147516,-0.0038405557683804,-1.5442203873804433e-07,1.660226937602582e-07,1.2306158740138154e-06,11641,5.750541,7.438287,5.555782
0.2377141560710668,-0.8072126400770121,0.1537006844543513,-3.45204097195983e-05,0.0002071884181106,-0.0038494965529878,5.624508269839752e-08,1.6669593700312178e-07,1.0413211368170195e-06,11642,5.58473,7.972506,5.445407
0.2071525230984214,-0.7064075135088526,0.1760894462937935,-0.0001349806195319,0.0002134489133633,-0.0038255849802882,2.939587037753539e-07,1.615536119648181e-07,8.122383750893693e-07,11643,5.456751,8.522429,5.221475
0.2047469263742032,-0.6093628461061422,0.2074802028077759,-0.0002374729879499,0.0002199685479227,-0.0037721628942058,5.004167704964622e-07,1.4933642378142096e-07,7.107240113749121e-07,11644,5.444921,9.036531,5.333682
0.1408554804696575,-0.512054611164874,0.2291741668173098,-0.0003382099451168,0.0002267593104034,-0.0036985997620671,5.511120740173111e-07,1.4631071409214325e-07,8.765756418171819e-07,11645,5.427674,9.582001,5.609873
0.0659415932278574,-0.4203175637482806,0.2359198884426818,-0.0004345447062373,0.0002337714333811,-0.0036120591056653,3.9201123845314205e-07,1.7637307473429764e-07,1.2800768093890912e-06,11646,5.507872,10.124519,5.696127
0.0108535302505892,-0.3273712930865965,0.2548810422727544,-0.0005249478648181,0.0002408818479401,-0.0035177315046451,6.944608994962522e-08,2.381424687409285e-07,1.803503264187712e-06,11647,5.629447,10.49917,5.936303
-0.4476758637761597,-0.2435576530774329,0.2820948585926652,-0.0006061070364414,0.0002479497463821,-0.0034272013796577,-3.559406753057046e-07,3.033590268265243e-07,2.342370603843034e-06,11648,6.004885,10.575832,6.475342
-1.4348273539705618,-0.2395292468324043,0.3246954731890057,-0.0006733978392292,0.0002547817649364,-0.003357735585954,-7.244894062653821e-07,3.459999790846152e-07,2.718154512832861e-06,11649,6.191293,10.4423,6.593305
-2.278643102364322,-0.3163194884234833,0.4419715114284519,-0.000724288002457,0.0002612666689732,-0.0033177979026226,-8.122509658607908e-07,3.37580190886249e-07,2.596956811516314e-06,11650,5.850863,10.581063,6.141917
-2.525389611829599,-0.3425806158291885,0.5933132984769657,-0.0007581794623834,0.0002673870077321,-0.0033073411293032,-5.614805905151688e-07,2.564317739606976e-07,1.8451051454673537e-06,11651,5.365729,10.899444,5.745454
-2.4450714738304664,-0.2478060855409152,0.678045585047537,-0.0007751153070579,0.0002731300384452,-0.0033242596055921,-1.2361405146011876e-07,1.276943216846375e-07,8.385015455526014e-07,11652,4.804679,11.230467,5.153397
-2.2809162240591934,-0.1613919514092624,0.7414375053546899,-0.000776833889657,0.0002785327395631,-0.0033598898221226,3.147081348035349e-07,8.04707499782784e-09,1.6881277378291783e-08,11653,4.163047,11.453229,4.277351
-2.0179449519668573,-0.2243087434867415,0.8435141985959692,-0.000764075345277,0.0002836127359174,-0.0034096299489515,7.000745416397366e-07,-6.320131043201376e-08,-5.560981307083321e-07,11654,3.558069,11.690052,3.621465
-1.7322898927582333,-0.3552353673570303,0.9061273837103836,-0.0007366173734424,0.0002883655008406,-0.0034730031330472,1.050209509978408e-06,-8.662473282577843e-08,-9.811998207431206e-07,11655,3.150192,11.957287,3.430579
-1.494189989550838,-0.375929420116994,0.8893412289643006,-0.000695634779978,0.0002928426866063,-0.0035441544845727,1.335780302345282e-06,-8.594726469619884e-08,-1.2528282310055785e-06,11656,2.831954,12.295398,3.537415
-1.3237253870588868,-0.2742731839617518,0.8497920464306572,-0.0006432836456929,0.0002971444973509,-0.0036136181022095,1.6026550325408342e-06,-7.484484903939672e-08,-1.3668929870158586e-06,11657,2.537087,12.634668,3.683817
-1.2174069249236534,-0.1666509605083248,0.8034353372851578,-0.0005811455611121,0.0003012934815879,-0.0036764951448557,1.973839521965921e-06,-5.7436538109309256e-08,-1.4924642204092282e-06,11658,2.285775,12.885254,3.471241
-1.1138134461399176,-0.0858517298662135,0.74823544809244,-0.0005105661792367,0.0003052373764779,-0.0037316145133633,2.427412146166206e-06,-3.5882121707464376e-08,-1.7496633837886938e-06,11659,1.982939,13.052282,3.029177
-0.9971428263056148,-0.0002996137952553,0.7034074492544844,-0.0004333369367569,0.0003089031788542,-0.0037786033187351,2.848754218259655e-06,1.6055852209259611e-09,-1.955568846917601e-06,11660,1.746744,13.185966,2.474454
-0.8378984896083972,0.0785811016593116,0.6664845529224002,-0.0003515115820951,0.0003121574521846,-0.0038200306444915,3.232811353153299e-06,6.901302440898187e-08,-1.896161918416652e-06,11661,1.58937,13.377179,2.14705
-0.6314525048841623,0.1547932797331634,0.6373761975724871,-0.0002693825276329,0.0003148962316189,-0.0038537914302084,3.626815766615102e-06,1.5962178357758608e-07,-1.6460576353919331e-06,11662,1.543537,13.673775,2.146671
-0.452421371512927,0.2437128703429746,0.6037226780376126,-0.0001940474728188,0.0003170434543785,-0.003872523888288,4.013319881081837e-06,2.531392077949132e-07,-1.4140446835978332e-06,11663,1.580493,14.078636,2.317931
-0.3319833798277836,0.3167471841602569,0.5391383192498689,-0.0001349885154537,0.0003184665983366,-0.003868579721336,4.33811363300666e-06,3.372792009969964e-07,-1.2251208357371277e-06,11664,1.647771,14.513447,2.409543
-0.2599093359600611,0.3638624344894853,0.4655568573540565,-0.0001054628302686,0.0003189880590432,-0.0038315245438433,4.588712350522648e-06,4.1954050809114085e-07,-9.219788746760744e-07,11665,1.729,14.906089,2.550475
-0.1663108253010496,0.4083139818429829,0.4125405921189596,-0.0001135902937631,0.0003186267900846,-0.0037501140135186,4.834935525464367e-06,5.169634572975362e-07,-4.51186092095032e-07,11666,1.776681,15.265839,2.694397
0.0513897987758297,0.4485751445414532,0.3666070055683755,-0.0001620529079364,0.0003176198039674,-0.0036120756936038,5.159877510383604e-06,6.336443848759564e-07,7.951218538780473e-08,11667,1.765945,15.595727,2.783261
0.3330864709407375,0.4840862193533242,0.3162964119830183,-0.0002535196998972,0.0003163435825728,-0.0034002242697607,5.596258316465019e-06,7.622976549243466e-07,6.119136398404383e-07,11668,1.733788,15.891403,2.847769
0.4928695325297406,0.5122704052704665,0.2726097886595144,-0.0003879560375728,0.0003154263340256,-0.0030917542666391,6.159643761124418e-06,8.966214398255668e-07,1.1457476544489666e-06,11669,1.671885,16.152914,2.938666
0.5470870922622072,0.5286919898291387,0.2321627478775804,-0.0005682873659424,0.000315646533112,-0.0026556424367317,6.846095722028145e-06,1.0312883430987136e-06,1.6223053795685017e-06,11670,1.643846,16.416763,3.020138
0.7420868685045622,0.5728135457400407,0.1797422189945366,-0.0008009847656318,0.0003180085961279,-0.0020493851721009,7.59344090618986e-06,1.1672993032972522e-06,2.0033145924509328e-06,11671,1.668516,16.718211,3.115913
1.117523514371288,0.5811733628608167,0.1067153559397428,-0.0010912072641836,0.0003239944732353,-0.001215845528764,8.269769097845672e-06,1.3074521946364432e-06,2.363251235482985e-06,11672,1.7132,17.035321,3.23899
1.4473166364606151,0.5479911403242591,0.0303395222508651,-0.0014443731719451,0.0003356834752022,-7.751859072476896e-05,8.72821997087217e-06,1.444937690152753e-06,2.817278098824762e-06,11673,1.764516,17.34699,3.391035
1.688539226780013,0.794186278737027,-0.0023973028941695,-0.0018607120897436,0.0003536781707976,0.0013988921873732,8.948823575006749e-06,1.57068519189745e-06,3.4053369280383743e-06,11674,1.907106,17.583952,3.740703
1.9551158601040464,1.3598314613726643,-0.0052681523983746,-0.0023337413629929,0.0003769559046127,0.0031980711671606,9.058592093906043e-06,1.6771671848804664e-06,4.0527700294893004e-06,11675,2.406753,17.554334,4.631954
2.2300778466388387,1.7387176258424106,-0.0099854281236096,-0.0028529026745527,0.0004038216296519,0.005288264380732,9.15655663528796e-06,1.7515600184899648e-06,4.622589136027996e-06,11676,2.386133,17.296657,5.160129
2.478419649954211,1.747111330656545,0.0546017469417279,-0.0034003292993306,0.0004310860020097,0.0075968590886126,9.253738194342275e-06,1.7689736400129615e-06,4.918608081656771e-06,11677,2.01784,16.887791,5.385862
2.683898478735176,1.7149458725103384,0.2046968303198578,-0.0039507803272789,0.0004551029364282,0.0100441338494734,9.359443424591302e-06,1.6995707221702385e-06,4.701516877634907e-06,11678,1.428115,16.238674,4.819671
2.722284438094456,1.7417432870989331,0.2861453274620593,-0.0044689031777848,0.0004714591391305,0.0125364975497906,9.407516822535224e-06,1.5269526148401455e-06,3.861316410898704e-06,11679,0.695556,15.216061,4.282698
2.5483532262836057,1.6792962008338526,0.2246019333237984,-0.0049025842304355,0.0004732640593825,0.0149170264832179,9.146244280214246e-06,1.245596510731617e-06,2.479638626208828e-06,11680,-0.183822,13.770333,4.026609
2.363523908862301,1.574135031663068,0.1514269669240635,-0.0051776781950247,0.0004507119261961,0.0169568708711343,8.309000304805085e-06,8.633501501515495e-07,7.739228382209042e-07,11681,-1.286405,11.881124,3.762602
2.247997623537937,1.5328977704716145,0.132708329002507,-0.0052571818803403,0.0004006778987646,0.0185365792000621,6.857491656380014e-06,4.162671841367661e-07,-9.4239787097325e-07,11682,-2.581246,9.529136,3.324869
2.005032001337577,1.558822868022777,0.1439219732115443,-0.0051434700474618,0.000327283782686,0.0196480185238242,4.9572070093181634e-06,-4.7207865600979724e-08,-2.446400533079032e-06,11683,-3.777875,6.818482,3.023881
1.6245156616217762,1.5835534716053896,0.2522682207283822,-0.0048468647389593,0.0002374848973576,0.0203008027983178,2.820492033762203e-06,-4.833519315527465e-07,-3.674166337010225e-06,11684,-4.418582,4.137325,3.292276
1.345909662767932,1.5229516724518306,0.434930799830047,-0.0044054843974378,0.00014475061037,0.0205792697874261,6.725676264259866e-07,-8.500002148151594e-07,-4.550861404781253e-06,11685,-5.058161,1.858372,3.792913
1.2477673481382756,1.4182212305819757,0.5217827947679744,-0.0038494292553245,6.39623023701303e-05,0.0205207733181198,-1.2591745805157864e-06,-1.115330871650769e-06,-4.984643551255431e-06,11686,-5.639673,-0.381419,3.798641
1.171017675742283,1.3249103814802177,0.4367535516232361,-0.0032018271483177,1.2625909080024204e-05,0.020112567745831,-2.840115504661419e-06,-1.2762240455332443e-06,-5.0095376829635256e-06,11687,-5.85832,-2.724027,3.347853
1.0431834404515388,1.2388108801250506,0.3334878462200912,-0.0025177845976489,1.852670454914699e-05,0.0194047945574301,-4.115476549289995e-06,-1.3648744663396657e-06,-4.832347380472247e-06,11688,-5.964563,-4.945707,3.017294
0.9973624781572402,1.1841070367872022,0.4525033261347221,-0.0018822894728232,0.0001212852294959,0.0184893916691239,-5.321801087854371e-06,-1.437545665249819e-06,-4.702828034243768e-06,11689,-5.499146,-7.223356,2.145727
1.069664597364718,1.0359177078978394,0.737070422312011,-0.0013292646973423,0.0003209397484736,0.0174086110555634,-6.75203274965849e-06,-1.551490970142362e-06,-4.770827420631497e-06,11690,-5.092681,-9.293084,1.580479
1.1134758214997214,0.5567567187527702,0.8660756743333653,-0.0008416100538177,0.0005731973214183,0.0161657547594442,-8.534203107101772e-06,-1.7386288009102725e-06,-5.132486525093898e-06,11691,-5.305988,-10.990132,2.24979
1.0431307539174042,-0.1866999461564454,0.7541387502346881,-0.0003874018376463,0.000810272548068,0.0147575605189826,-1.0500206624690784e-05,-1.9762647725264498e-06,-5.7615564072477546e-06,11692,-5.910781,-12.351655,3.797868
0.9266743175556564,-0.8234134397837407,0.6138105392487231,0.0001067686801655,0.0009183959965891,0.0131514241923828,-1.2259267961256942e-05,-2.183674291621597e-06,-6.318205490899188e-06,11693,-6.501011,-13.439835,5.315567
0.8490235561057614,-1.1164770276124505,0.5333032020263025,0.0006622061691855,0.0008595300568764,0.0113725940337087,-1.3459927001208364e-05,-2.279626736993956e-06,-6.388179969075497e-06,11694,-6.972089,-14.238684,6.347929
0.9040743531197736,-1.1251898967645215,0.4487302903217031,0.0012427496090916,0.0006791779656314,0.0095125000004063,-1.393193961961314e-05,-2.2461119280753453e-06,-5.964827962656138e-06,11695,-7.054778,-14.857473,6.582188
1.2724914345329936,-1.0260345667024748,0.3702888640630086,0.0018203925534934,0.0004334709229352,0.0076757377360656,-1.3682199309093886e-05,-2.129061779708529e-06,-5.429100902293656e-06,11696,-6.5295,-15.371504,5.979494
1.9236147332530351,-0.9393748651812392,0.2657353466864184,0.0023480810651219,0.0002300720280522,0.0060118015758297,-1.2964444953204158e-05,-1.989019085995253e-06,-5.023395275114457e-06,11697,-5.817304,-15.692979,5.067765
2.398496149850346,-0.8946179373577816,0.0717189596326505,0.0028042304157882,0.0001088497320725,0.0045974064951639,-1.2158334166114428e-05,-1.85541767764519e-06,-4.629807366383322e-06,11698,-5.39209,-15.712846,4.576617
2.3349817565417603,-0.891626979401557,-0.1404960927463587,0.003200808646712,3.13890696041858e-05,0.0034254577770978,-1.1530312906671988e-05,-1.7424490058679043e-06,-4.174892187684726e-06,11699,-5.169186,-15.373336,4.587761
2.1357130890388496,-0.8052693158397006,-0.2455215650515129,0.0035420268746342,-3.0513883060354736e-05,0.0024829438420864,-1.1209660316337918e-05,-1.6715463169418785e-06,-3.8083696023345207e-06,11700,-5.220625,-14.854181,5.169324
2.40082881037297,-0.3750243177556839,-0.263651963173837,0.0038389224342204,-0.0001313223376912,0.0017108048161419,-1.1135970482248914e-05,-1.622722173655097e-06,-3.483712528028483e-06,11701,-4.833325,-14.72709,5.330108
2.8315021003958845,0.3130753951660995,-0.4137094619835914,0.0040958547320238,-0.0002919452916883,0.0010608324568237,-1.1043495193739305e-05,-1.5270639110968648e-06,-2.88974550701589e-06,11702,-3.821659,-15.339991,4.514418
2.856114749810047,0.6399056945060049,-0.7470078041137292,0.0043060527035852,-0.0004890467107951,0.0004963740150806,-1.078470564976312e-05,-1.3655659266106885e-06,-2.015158008573116e-06,11703,-3.644133,-15.886779,4.093406
2.570386393786734,0.530626659959791,-0.9440577062467016,0.0044698579474098,-0.0007113207799972,-7.741918361299461e-05,-1.0607920862530193e-05,-1.213406086947408e-06,-1.2539108626074785e-06,11704,-3.182221,-15.918027,3.951259
1.9627651467956364,0.9675728920382908,-0.8895466140442838,0.0045904688151967,-0.0009403313387938,-0.0008108823916197,-1.0818914382166626e-05,-1.1254759885137852e-06,-7.130781260214093e-07,11705,-2.154523,-15.318084,3.623928
0.6665657884375047,1.9508651098307053,-0.9592441096289592,0.0046682391222113,-0.0011656209911167,-0.0017701240285086,-1.1225775590950318e-05,-1.0485481462575797e-06,-2.7601718054980466e-08,11706,-1.022762,-15.371692,3.116032
-0.9013988518182544,1.95714571403599,-1.3394294835637417,0.0047027337086365,-0.0013909928633462,-0.0029390520146656,-1.1358134959987949e-05,-9.267204722195888e-07,9.018876095987448e-07,11707,-0.994664,-16.00286,3.560315
-1.8219025102363375,0.8783982890803383,-1.708646799573027,0.0046923509126841,-0.0016122509323859,-0.0042844367240249,-1.104564920175556e-05,-7.827293602761014e-07,1.7502457553172412e-06,11708,-1.45427,-16.22243,5.128349
-2.09646415712813,0.2744659843156465,-1.7811888840344494,0.0046333925126042,-0.001822559019651,-0.0057128321053698,-1.027636807273965e-05,-6.229953652386365e-07,2.454042168839682e-06,11709,0.401833,-15.470284,3.063745
-2.292713387224988,0.4608377144324498,-1.6759094940871213,0.0045261779056375,-0.0020106705422433,-0.0071691838618989,-8.901037056630911e-06,-4.055974409453196e-07,3.2241689754981814e-06,11710,1.531223,-14.195331,1.475648
-2.503494777961412,0.5497534467198417,-1.677172953833074,0.0043753035206904,-0.0021569689496963,-0.0086382680027404,-6.9496216232662205e-06,-1.4442992315032658e-07,3.921303790874578e-06,11711,1.992544,-13.029452,0.51663
-2.5625870520142646,0.4130077550633767,-1.7936280487502896,0.0041865246444266,-0.0022367928778267,-0.0100558881884492,-4.809964614385781e-06,8.622749167405953e-08,4.183772005301155e-06,11712,2.174862,-11.882827,-0.090695
-2.414431490414872,0.3473639468649243,-1.794969542143209,0.0039688772890777,-0.0022168581117928,-0.0113259099887675,-2.774879808152148e-06,2.673724337794896e-07,4.055221130726699e-06,11713,2.43887,-10.72943,-0.906453
-2.181209060928578,0.3118220267401206,-1.6414503967272958,0.0037274613821993,-0.0020802203809226,-0.012400342538576,-7.497919171792938e-07,4.50161518902223e-07,3.867743163876389e-06,11714,2.647271,-9.474604,-2.063359
-2.098735800983738,0.2740071797382549,-1.5179180397219132,0.0034630028854157,-0.0018282126237671,-0.0132729651918587,1.4361972297852528e-06,6.605098541470058e-07,3.722305269684325e-06,11715,3.071015,-7.995421,-3.117766
-2.191462074419935,0.1281775425340349,-1.4909101305806094,0.0031770250947937,-0.0014662997514416,-0.0139525657135081,3.686713103384317e-06,8.769205405672281e-07,3.5788228407319044e-06,11716,3.562682,-6.381535,-3.926368
-2.2661797845841622,-0.1547301476477729,-1.4585673480291523,0.0028697766283011,-0.0010131179017077,-0.0144864900755135,5.70576548011492e-06,1.0791034293244835e-06,3.526327924751948e-06,11717,3.896078,-4.755906,-4.569599
-2.213556388422588,-0.314722522315615,-1.3681547491350488,0.0025442387222197,-0.0004860983477203,-0.0148917866646305,7.278703138797837e-06,1.250817755560323e-06,3.5819916030854443e-06,11718,4.046923,-3.173547,-4.621578
-2.0456725317412303,-0.3168204232717639,-1.2400671368762053,0.0022069524416877,9.745868021654188e-05,-0.0151548556145167,8.44089118195944e-06,1.3728673163259485e-06,3.5692535914171067e-06,11719,4.081837,-1.662611,-4.375858
-1.8048081337977584,-0.3173149545168068,-1.1112065392470478,0.0018648140836872,0.0007027067052206,-0.0152863689136249,9.417539724652434e-06,1.4562151751393685e-06,3.4038033521463773e-06,11720,4.102373,-0.194789,-3.879363
-1.6207684370375095,-0.3141294724098836,-0.9988693721147096,0.0015266850709523,0.0012766770001814,-0.0153073417132861,1.0389759271485448e-05,1.5349755453948989e-06,3.1897225347727104e-06,11721,4.013864,1.188176,-3.539325
-1.6027669234363071,-0.2811262339227046,-0.8889450486317663,0.0011959917780473,0.001789128168861,-0.015217803692219,1.1353288049852642e-05,1.6170213150544156e-06,3.020257578301015e-06,11722,3.792109,2.518315,-3.345568
-1.6527668702337197,-0.2512158964252448,-0.7952841142238145,0.0008696811662242,0.0022314846501925,-0.015000513621978,1.2188526638375306e-05,1.6885384842078266e-06,2.9501105879664742e-06,11723,3.759171,3.753297,-3.172462
-1.6442101056623626,-0.2234723070586934,-0.7176324948588118,0.0005423948390578,0.0025956125299699,-0.0146252809259846,1.273514076514749e-05,1.7533865640845714e-06,3.092091088374864e-06,11724,3.61584,4.924741,-2.592576
-1.5887500900144689,-0.184124571078702,-0.6348195174804526,0.0002033192862247,0.0028851178852335,-0.0140386109188692,1.2887512053235673e-05,1.835928142315044e-06,3.570593509982181e-06,11725,3.734638,6.005309,-1.561554
-1.4888037089084198,-0.123447290721705,-0.5580868340837332,-0.0001610537515652,0.0030841760758356,-0.0131934667475789,1.2718083636161462e-05,1.947132775546621e-06,4.3556447526633056e-06,11726,3.999334,7.041316,-0.05081
-1.2530897861732309,-0.0155326274567752,-0.48677228639755,-0.0005681797650742,0.0031539840838706,-0.0120458639533296,1.2416159898594964e-05,2.064333595439317e-06,5.211462318703341e-06,11727,4.356385,8.111391,1.639528
-0.8733752717810674,0.1283805188400356,-0.4229732987802083,-0.0010456131391684,0.0030549342634226,-0.0105272395705742,1.2167573533824854e-05,2.1650859807814288e-06,5.909426048458666e-06,11728,4.749533,9.224638,3.059948
-0.550784343748893,0.3189949416260982,-0.364957006597292,-0.0016332017652126,0.0027359197248923,-0.0085454644865625,1.2143447953490448e-05,2.257951601784722e-06,6.382464209127317e-06,11729,5.098964,10.31392,4.082784
-0.4387629072644384,0.5731020215918696,-0.2502235312868791,-0.0023437892839366,0.002201544079621,-0.0060676187043341,1.244629314647175e-05,2.353644967124319e-06,6.643504917160115e-06,11730,5.323969,11.30266,4.80489
-0.4319791470080807,0.716313200238992,-0.0670641273521527,-0.0031609568835212,0.0015234092097988,-0.0031241931224934,1.300022927476085e-05,2.4310529266958118e-06,6.702326852976147e-06,11731,5.448288,12.055979,5.429112
-0.4111899502081561,0.681229782912616,0.0744162769568293,-0.0040575725780158,0.0008090860902445,0.0002249047309723,1.3569839060647944e-05,2.445075949518254e-06,6.481611820987084e-06,11732,5.323758,12.527857,5.421059
-0.3857146907824562,0.7991457474153258,0.1001050417401848,-0.0049809591298286,0.0002351093769397,0.0038577126244062,1.3884082235943305e-05,2.350737678832111e-06,5.809721863705209e-06,11733,5.10764,12.407767,5.143534
-0.3512044618799388,1.148039656282639,0.1407296511121495,-0.0058739808552288,-0.0001271706631013,0.0076361313625097,1.3676760662129946e-05,2.10791998175965e-06,4.578124683219705e-06,11734,4.17262,11.733368,4.522353
-0.3029028697823185,1.3528068090817054,0.3821077140468897,-0.0066706363862665,-0.0003217358145109,0.0113929534455371,1.2690744429493993e-05,1.6883451843584944e-06,2.831796350098529e-06,11735,2.558063,10.236901,3.514095
-0.3135654107787056,1.2958442870543694,0.7019333281081236,-0.007265496113002,-0.0004006346159171,0.0148613988237147,1.0839798596660884e-05,1.1182381340889971e-06,7.774601817045826e-07,11736,0.791742,8.038257,3.081481
-0.5527281770529239,1.1620141843193563,0.8189889845571383,-0.0075082789589484,-0.00048037297594,0.0176584721332177,8.35406817977696e-06,4.94090301194622e-07,-1.268860704054897e-06,11737,-0.656882,5.406171,3.557616
-1.1309934314068837,1.1038716567603128,0.8097235855099335,-0.0073419041071897,-0.0005971727506305,0.0195867320520106,5.609268692540303e-06,-8.162609437936597e-08,-3.041461251881095e-06,11738,-1.522747,2.825555,4.425941
-1.7401194511755516,1.0560508067721055,0.94261653089899,-0.0068087925984471,-0.0006931363049867,0.0206402252636051,2.9175802071041013e-06,-5.635626110568332e-07,-4.456982723988746e-06,11739,-2.52249,0.462208,4.418756
-1.9068072136261491,0.6446014872080099,1.1352912500706656,-0.0059862766207836,-0.0007294650864844,0.0208489949620959,5.417635906576638e-07,-9.506797782778428e-07,-5.618877722364429e-06,11740,-3.05937,-1.970909,4.050541
-1.7112776492137327,-0.1570149734249698,1.1711481827737948,-0.0050373076239685,-0.0006433225852481,0.0203767175567159,-1.3938931484229933e-06,-1.2543366287830202e-06,-6.624309747531448e-06,11741,-3.929803,-4.355719,3.78867
-1.5295309675325446,-0.7073666155270626,1.1260809075871612,-0.0040456352934867,-0.0004183124733482,0.0193244256441876,-3.0392850442733297e-06,-1.499487611321911e-06,-7.4032661869806014e-06,11742,-4.128173,-6.728312,2.782673
-1.2942853314310132,-0.7218855233268947,1.1273740294809504,-0.0030112785985158,-0.0001009573158054,0.0177303917587408,-4.628591318899892e-06,-1.7149889857623145e-06,-7.885321304029417e-06,11743,-3.953937,-8.869622,1.959338
-0.8754222389029369,-0.7226537596304597,1.1551761323335443,-0.0019767588172374,0.0002618394561999,0.0157642904810161,-6.21441119438071e-06,-1.9088560398973966e-06,-8.16143334646208e-06,11744,-3.851757,-10.580597,1.537333
-0.5566980617430116,-1.050269491166279,1.2013050080117584,-0.0009881164120725,0.0005949417882173,0.0137025850263481,-7.700185287350334e-06,-2.0694796785418957e-06,-8.327566450241048e-06,11745,-4.191633,-11.986601,2.261713
-0.4514068606568535,-1.4220731874068,1.276807612065585,-7.951656292120787e-05,0.0008628731916169,0.0116961057436556,-9.038475962388448e-06,-2.182899687563057e-06,-8.336056224637315e-06,11746,-4.585205,-13.136443,3.564478
-0.3679498107899464,-1.538770579367514,1.34203054789448,0.0007152073118782,0.0010788502552664,0.0097876126828835,-1.0213227719026e-05,-2.2416818502933195e-06,-8.144519629802576e-06,11747,-4.676798,-13.986779,4.311146
-0.224272579437532,-1.4161695111731585,1.3527366556001632,0.001383805124552,0.0012505003734724,0.0080150335914301,-1.1083402369431489e-05,-2.2416567953996638e-06,-7.833849244287556e-06,11748,-4.536918,-14.540545,4.679303
0.1453636400322268,-1.2560406365689472,1.2855979273275548,0.0019398888364844,0.0014021801926064,0.0063519341739494,-1.152701470074336e-05,-2.1876082789444754e-06,-7.445055820994427e-06,11749,-3.993787,-14.822562,4.636231
0.8121111638150479,-1.2044791653092566,1.129506215390776,0.002387043048993,0.0015406919317657,0.0048069106529673,-1.16294599873881e-05,-2.0927628939601903e-06,-6.8670303628804775e-06,11750,-3.763142,-14.85321,4.918355
1.385772227986311,-1.2422615174675482,0.940410000755934,0.0027250302101456,0.0016494466992144,0.0034267333858626,-1.1540670220945242e-05,-1.95238215138073e-06,-5.966919661254213e-06,11751,-3.388503,-14.680806,5.311596
1.6827655766579532,-1.1151991687747584,0.8090014297716632,0.0029753930309868,0.0017230887674956,0.0021954935581114,-1.1333096386084764e-05,-1.7518483383860096e-06,-4.7458774073375245e-06,11752,-2.820642,-14.234002,5.62468
1.9269617604513445,-0.5227682852687978,0.752263014402949,0.0031793766958486,0.0017576610180038,0.0010491848212515,-1.1042260953591123e-05,-1.4984242853923463e-06,-3.2867771074917057e-06,11753,-2.652786,-13.756456,6.378278
2.0489093956407,0.1969530815622712,0.705916827160628,0.0033545031937086,0.0017237476283105,-4.408301538580449e-05,-1.0771770905729332e-05,-1.227119821189139e-06,-1.7105281870168831e-06,11754,-1.686479,-13.950092,6.439934
1.9535224132047724,0.4710207597973803,0.5667875258876255,0.003496478547304,0.0015653914334083,-0.0010986549845467,-1.0762407510800992e-05,-1.0129689211228711e-06,-3.968503145129313e-07,11755,-0.160102,-14.758898,5.740621
1.858734870211312,0.5260846813568899,0.2799976838791889,0.0036008538165792,0.0012001407619122,-0.0021492001440549,-1.1259757190316366e-05,-9.496809797550396e-07,1.1554165168530036e-07,11756,0.4333,-14.837115,6.452691
1.5752575032591365,0.7877952955771764,-0.0894577334872853,0.0036513987233936,0.0005045888187444,-0.0032393606286641,-1.2210938406791157e-05,-1.0475399253264366e-06,-2.138018477599853e-07,11757,1.021598,-13.885736,7.244887
0.7455970412375366,0.9973870460949216,-0.3615660148981006,0.0036428115063203,-0.0005262183051441,-0.0043895319571996,-1.3115844577509982e-05,-1.1817708030610983e-06,-7.19780183486831e-07,11758,-0.3538,-13.445546,10.574178
-0.2137178676620254,0.8172646430269828,-0.4142031974216458,0.0035825248866883,-0.0017634739760016,-0.0055974379159775,-1.332543759744607e-05,-1.200601545482007e-06,-7.035198118934213e-07,11759,-0.582657,-14.141535,11.071789
-0.690193016320137,0.4734033603904415,-0.4914739006166451,0.0034704581987631,-0.0030179528244006,-0.006845350281338,-1.250022389170808e-05,-1.0489920950014207e-06,-9.3803219225256e-09,11760,-0.93275,-13.968104,11.433562
-0.7130678687954807,0.3011274648128505,-0.8353983925114328,0.0033044978059744,-0.0039730201833796,-0.00808729519293,-1.06751940925693e-05,-7.533572311436878e-07,1.1381699783762242e-06,11761,1.751761,-13.250734,8.209149
-0.5904826383690147,0.3068452915569427,-1.0822285456580107,0.0030869086291574,-0.0044908708418008,-0.0093054153727257,-8.111382381934402e-06,-3.6783579587777424e-07,2.4487801555811504e-06,11762,2.34057,-11.513782,6.932835
-0.5046602299424607,0.3300103820125786,-0.9582158670567252,0.0028225871107438,-0.0046295932826639,-0.0105101968902824,-5.311071956776336e-06,1.7598997185914464e-08,3.558556571905334e-06,11763,3.106371,-10.157216,5.192959
-0.5156180224937069,0.2754383622335196,-0.8637739547533342,0.002520202265736,-0.0044453912149365,-0.0117012318585469,-2.848015052234858e-06,3.082490116248961e-07,4.139305788158571e-06,11764,3.405619,-8.955542,4.797007
-0.5358493470715785,0.1956024078911242,-0.9546765877404102,0.0021941158166544,-0.0040874901778658,-0.0128807853111543,-8.922041084495899e-07,4.993405416417864e-07,4.250917365110443e-06,11765,3.52861,-7.715799,4.254766
-0.4534141633504139,0.1662241865897719,-0.891080633454229,0.0018570264439772,-0.0036237892756285,-0.0140318424419244,8.537423200858072e-07,6.677397465056115e-07,4.271073423946829e-06,11766,3.743356,-6.312725,3.553243
-0.3130468146104072,0.1729480158872796,-0.6919486410467157,0.0015210274728598,-0.0030233567311705,-0.0151106679721502,2.63347981175436e-06,8.457800002261325e-07,4.347727012474691e-06,11767,4.003343,-4.828921,3.193297
-0.2211325485272055,0.1698570809991039,-0.6098049156912747,0.0012038490770714,-0.0023207803415192,-0.0160630336794919,4.351896958081014e-06,9.898004911547351e-07,4.268044498487921e-06,11768,4.057138,-3.325708,3.003713
-0.1876448124030163,0.1513473369085342,-0.5846856033305778,0.0009286085680896,-0.0015739777552228,-0.0168120422939665,5.860001094034444e-06,1.076702025030722e-06,3.915834509999209e-06,11769,3.964334,-1.771642,3.063814
-0.1633733525993196,0.1460230089284415,-0.5325305540617665,0.000705560057438,-0.0008156352532376,-0.0173086207934321,7.185352511652879e-06,1.1445496735416207e-06,3.504645211311734e-06,11770,3.901566,-0.244843,3.183295
-0.14618625191867,0.1583982802571074,-0.484253035408062,0.0005312528999193,-7.073671687839135e-05,-0.0175342697922378,8.35886072567843e-06,1.2352747169182303e-06,3.3340190680296943e-06,11771,3.846897,1.328941,3.605035
-0.1272802487844256,0.1684174674428551,-0.4241631360358174,0.0003961581601205,0.0006486091025667,-0.017466139109827,9.319219978849e-06,1.3508852268478995e-06,3.4773506814243776e-06,11772,3.953336,2.784186,4.266579
-0.0150070053643474,0.1641931790429291,-0.3823202549754432,0.0002776058998816,0.0013519728107281,-0.017091728594138,1.0102442630962992e-05,1.4796052899939438e-06,3.796843136498703e-06,11773,3.90175,4.153734,5.320109
0.1929414514562625,0.1551453128093307,-0.3650758917169252,0.0001503590942545,0.0020051175187177,-0.0163763720568226,1.0823880093893025e-05,1.629919554601342e-06,4.255988434287163e-06,11774,4.088521,5.396202,6.339762
0.3118657683111084,0.1472657314364784,-0.3277964141024699,-1.592095774455445e-05,0.0025269455044162,-0.0152573070051718,1.1447666032571813e-05,1.8009724576275436e-06,4.897965669407944e-06,11775,4.343219,6.646017,7.671293
0.2789056603342844,0.1701524859547825,-0.2900899093455165,-0.0002719060417666,0.0028222753555952,-0.0136681653947891,1.1858893424442404e-05,1.9628829408601093e-06,5.596054558092478e-06,11776,4.722752,7.913109,9.050492
0.3738732480892427,0.26658078682676,-0.2702158623900224,-0.0006916060803318,0.0027585511372853,-0.0115261024801125,1.2105744228556218e-05,2.1053361045061925e-06,6.22761876863179e-06,11777,5.201029,9.207054,10.356902
0.8088034825287265,0.3662475367011282,-0.2518472098351763,-0.0013036041095494,0.0022995415807905,-0.0088020362528809,1.234535189106971e-05,2.244752269845029e-06,6.821690997289074e-06,11778,5.510252,10.462674,11.380807
1.295588514515686,0.4484938924951798,-0.1651090164757765,-0.0020883233850657,0.0015204836532054,-0.0055307902315444,1.2673003117743645e-05,2.3712847733279934e-06,7.315854836160342e-06,11779,5.722211,11.503244,12.185308
1.501496786659927,0.6315607256986424,-0.0050087092542,-0.0030110333056796,0.0005370264261149,-0.0017746250044554,1.3148638812565708e-05,2.439752053637648e-06,7.430851943306752e-06,11780,5.867267,12.197398,12.93775
1.469063863862015,0.8861661151019682,0.0315997314103054,-0.0039973090059428,-0.0004399672193631,0.0023454468324129,1.3726182286091497e-05,2.399888134304892e-06,6.889144446510327e-06,11781,5.604715,12.530856,12.883996
1.306126029224301,1.1473180335863806,-0.0982522108182035,-0.0049735045512769,-0.0012977378466902,0.0066736450910599,1.39984685701857e-05,2.208666699241374e-06,5.671688021039471e-06,11782,4.939158,12.006288,12.298685
1.2385696085960904,1.4977120083072315,-0.1321107468504257,-0.0058618632994366,-0.0020289598966262,0.011003864570931,1.3369092493315172e-05,1.8363772081038933e-06,3.937468077750416e-06,11783,3.431387,10.673428,10.804459
1.2693289295846617,1.805971512698843,0.0318513378835789,-0.0065301908882576,-0.0025890267090047,0.0150167637220833,1.1615534648603052e-05,1.2968249701001908e-06,1.8458437020472732e-06,11784,1.516515,8.165682,8.95034
0.6460061170339104,1.809401296813908,0.2227856804721974,-0.0067881500043717,-0.0029457890011203,0.0182524645892169,9.027157148367045e-06,6.660471605442973e-07,-3.685459466035928e-07,11785,-0.303402,5.025264,9.17283
-0.7187453179073426,1.6471100065285174,0.3638311889171013,-0.0065721393616169,-0.0030694266168355,0.0204744764625037,6.108255124949675e-06,4.174990700830797e-08,-2.452344151223529e-06,11786,-1.647391,2.037832,10.369932
-1.5796067211263942,1.4658699607068788,0.5208356296941299,-0.0059535170521393,-0.0029206628689007,0.0216790081893946,3.3923330935606102e-06,-5.035348917922091e-07,-4.335816373988826e-06,11787,-2.601406,-0.520208,10.338251
-1.4466930962474822,1.0297843277801468,0.6718787385910701,-0.005055762921084,-0.0024954048109423,0.0219023440659594,1.3259617573197911e-06,-9.216534348749283e-07,-5.972672144913952e-06,11788,-3.186756,-2.86041,9.24583
-1.196846522377337,0.3729105707191253,0.7730526174593357,-0.00412356607005,-0.0018248644569785,0.0213387730069009,-6.7894255875689565e-09,-1.1974322782699e-06,-7.163472453407103e-06,11789,-3.470618,-5.31214,8.016005
-1.23058043200863,-0.1182131344911838,0.9167895025401576,-0.0032672277871783,-0.0009589694691067,0.0201092552667405,-1.0447434201956984e-06,-1.3779615118216796e-06,-7.80672631282701e-06,11790,-3.659444,-7.724838,6.517352
-1.2112982832439303,-0.3406514319872492,1.1502880319516935,-0.0024526365968637,1.714056516807826e-05,0.0182604428677323,-2.4145129791344564e-06,-1.5416654106408805e-06,-8.054747863374122e-06,11791,-3.327393,-9.939923,5.027604
-1.0806974702965657,-0.5871226676955446,1.326359292002227,-0.0016835438475261,0.0009596086007371,0.015996037572083,-4.417073900991917e-06,-1.7312196282704543e-06,-8.101252352322997e-06,11792,-2.938715,-11.776115,4.509508
-0.896514044756609,-1.1236994095152664,1.3207534704114574,-0.0009330290290433,0.0016488795297742,0.0136478974540498,-6.894156114024208e-06,-1.943348588462023e-06,-8.067840285045994e-06,11793,-3.485293,-13.271626,6.010562
-0.685216901906539,-1.7375944347857917,1.236275653818666,-0.0001982140724108,0.0019842486602898,0.0114016344778846,-9.42736484368398e-06,-2.1581681830070992e-06,-8.102843593669261e-06,11794,-4.223949,-14.500482,8.118713
-0.5136840187273172,-1.9783998952837252,1.2017974215347382,0.0004822567655754,0.0019898585382474,0.0093184577388312,-1.1587766864055257e-05,-2.3414375471213875e-06,-8.2744203629292e-06,11795,-4.641212,-15.388425,9.726284
-0.3100930121270654,-1.8181046428999963,1.1924801639124218,0.001107614508821,0.0017087059568213,0.0074582791404816,-1.3061612642029534e-05,-2.4383810965339537e-06,-8.349862054249945e-06,11796,-5.006683,-15.987291,10.637411
0.0392925001161201,-1.6265612761024013,1.1824809081279273,0.0017003792097105,0.0012656078001995,0.0058110008115233,-1.3639519922176268e-05,-2.410716477085992e-06,-8.039931476109922e-06,11797,-4.838597,-16.178931,10.770017
0.5977292824679591,-1.6199024324675213,1.135055801236881,0.0022610244958506,0.0007405718328369,0.0043900689421158,-1.3305412781768174e-05,-2.2724728275153624e-06,-7.360704043537703e-06,11798,-4.393521,-16.060886,10.462868
1.0609733067404394,-1.756664793496498,0.9749943790312622,0.0027774088094118,0.0001662431736679,0.0032339386964139,-1.2393871751412135e-05,-2.0675860897145457e-06,-6.47702661539883e-06,11799,-3.575865,-15.725601,9.937944
1.134733482667528,-1.8467744078992667,0.7969383841931093,0.0032376311240461,-0.0003491413129002,0.0022975861770892,-1.1443808769885104e-05,-1.83431262680426e-06,-5.456135901282075e-06,11800,-2.996955,-15.133419,9.641187
1.2898893822803417,-1.5517257814113927,0.750743141390116,0.0036216140915421,-0.0006409836504202,0.0014596229632552,-1.0791875803589348e-05,-1.5915559974787105e-06,-4.274218692156586e-06,11801,-2.821427,-14.414891,9.797427
1.7885782678775175,-0.965945482561142,0.7137994385117603,0.0039196316894078,-0.000665540381508,0.0006494941140175,-1.047471846038526e-05,-1.343460535993987e-06,-2.8707626973987325e-06,11802,-1.513518,-14.64618,9.04641
2.1138900260556,-0.6679938298214603,0.5322252923957372,0.0041337102729572,-0.0004995087993822,-0.0001701401358602,-1.0530269196638904e-05,-1.1135114160059834e-06,-1.300636779682423e-06,11803,-0.342753,-15.995344,8.18416
2.0490833807687774,-0.4839578068978137,0.2778946613620932,0.0042637223781782,-0.0002766060131927,-0.0010747691170343,-1.106025818776725e-05,-9.64284811629676e-07,9.175089659841821e-08,11804,-0.156356,-16.669331,8.691281
1.5457693508829649,0.4118015007290042,-0.1676075669711794,0.0043127080839648,-0.0002516360976264,-0.0021589151421201,-1.1955325078255343e-05,-9.393520843693762e-07,8.861930925289313e-07,11805,0.509241,-15.922683,9.375916
0.3019502786474967,1.6442355373720727,-0.949505748342546,0.0042840964307901,-0.0005101096342143,-0.0034508255341088,-1.2791328089203378e-05,-9.894942537712212e-07,1.0762496336489963e-06,11806,0.928613,-14.986849,10.984226
-1.0809828738718157,1.8436038265662047,-1.6332686057272774,0.004180921586287,-0.0009534205396649,-0.0049098075696035,-1.3027405457493596e-05,-1.0025380051649972e-06,1.1149976998471023e-06,11807,0.43436,-15.242107,11.276275
-1.521537751421122,1.0025862394820273,-1.7994338490050177,0.0040121113190336,-0.0014851778661907,-0.0064475172018362,-1.2320988094601152e-05,-8.984910014707576e-07,1.4320442040340603e-06,11808,-0.333258,-15.296796,12.560361
-1.310896384693442,0.4048204580654955,-1.6933432797107293,0.0037927331875925,-0.0019220886443441,-0.0078907746207091,-1.0644781904798876e-05,-6.580780273334052e-07,2.1324022731101763e-06,11809,1.433437,-14.607898,10.127668
-1.1794126196948338,0.4067494090859663,-1.616547959329072,0.0035308184993274,-0.0021815232539967,-0.0091686361085465,-8.164109339517578e-06,-3.049705239296181e-07,3.0724825464563845e-06,11810,2.41409,-12.835016,8.244029
-0.8781284417809776,0.3435438157743187,-1.5273651800193269,0.0032279137362126,-0.0023031194920992,-0.0103170352151004,-5.214462482336691e-06,8.151472772270496e-08,3.921245577126834e-06,11811,2.972337,-11.080283,6.565967
-0.3183492995883114,0.0425769464887497,-1.411781848985961,0.0028859905370263,-0.0022890730653594,-0.0113570555440152,-2.260149089588946e-06,3.9748323258483205e-07,4.280819892289372e-06,11812,3.402538,-9.610929,5.472368
-0.008928833622542,-0.1234678643662189,-1.3060110226696708,0.0025040429175693,-0.0021586901100812,-0.012346908216776,3.62132008549646e-07,6.119672370736575e-07,4.065389465721258e-06,11813,3.855981,-8.159077,4.648845
-0.0308218225576549,-0.0826535853733872,-1.1741456308619531,0.0020879666066792,-0.0019241045323723,-0.0132948736736343,2.63150510870262e-06,7.842628012647155e-07,3.6423611028228144e-06,11814,3.887039,-6.686537,3.688637
-0.0764327760662013,-0.0252074660146577,-1.0586543944491793,0.0016520075852309,-0.001575206094023,-0.0141443694176063,4.752716474486798e-06,9.744872165311646e-07,3.428599306641853e-06,11815,4.114523,-5.136496,2.989095
-0.0631749488662899,-0.0145884238353684,-1.000246601242473,0.0012123190469057,-0.0011354294447305,-0.014853158963699,6.853603282187219e-06,1.1824774810301585e-06,3.483852223490351e-06,11816,4.375733,-3.409885,2.52996
-0.0601421690773652,-0.0296004813282937,-0.9255030122146968,0.0007908929101989,-0.0006557963809819,-0.0153650945476866,8.821750510802447e-06,1.3711856897612308e-06,3.576402646263011e-06,11817,4.346162,-1.694272,2.554971
-0.0699194137008295,-0.0760796985564717,-0.7939766060384998,0.0003982173730675,-0.0001603977947218,-0.0156392613688505,1.0482447313249018e-05,1.5149061822053713e-06,3.537290932054372e-06,11818,4.238644,-0.150267,2.765151
-0.0701414184148495,-0.1053204966317925,-0.6586725361380594,3.146607190674235e-05,0.0003468718248011,-0.0156588569836024,1.176047120820791e-05,1.6153638592552514e-06,3.421881384894697e-06,11819,3.97837,1.371854,3.354243
-0.0384263753786885,-0.0538966407202404,-0.5483648611222884,-0.000314954112686,0.0008585911110031,-0.0153948335399933,1.2659935367272616e-05,1.6946675076719246e-06,3.3782067178797206e-06,11820,3.883536,2.795712,3.907051
0.0262491330405925,0.0392787298715726,-0.4356850996795515,-0.0006558580182687,0.0013753203400556,-0.0148154738394145,1.3230413872750025e-05,1.7829465737762402e-06,3.5233897474290444e-06,11821,3.808108,4.174488,4.846402
0.0861909463064755,0.138307028209126,-0.3338605771503424,-0.0010073426756542,0.0018612174275072,-0.0138809185918248,1.3519028846146668e-05,1.8998503650153712e-06,3.9474837880052185e-06,11822,3.8459,5.465495,5.949844
0.0580387283455918,0.2157188414398919,-0.289829955440017,-0.0013878808331501,0.0022361167921714,-0.0125369233296476,1.3575031917080693e-05,2.046159294189882e-06,4.691613880452437e-06,11823,4.054579,6.704787,7.209401
0.0047899093397452,0.2717581043967413,-0.2949059245876358,-0.0018303072195946,0.0023981671944517,-0.0107222942995692,1.351528957446673e-05,2.2078506466919823e-06,5.654457953761535e-06,11824,4.395378,7.903932,8.511268
0.2669005004649324,0.4300790578865509,-0.2548089199750321,-0.0023834776340176,0.0022024160617921,-0.0083627336307631,1.3463024435255736e-05,2.366493087468585e-06,6.648801138970011e-06,11825,4.860167,9.073281,9.742147
0.820014621745101,0.663438495473648,-0.0673746594699436,-0.0030624637760496,0.0016156150840059,-0.0054334489668396,1.3481370900874324e-05,2.507626869186651e-06,7.517028541856848e-06,11826,5.154604,10.135809,10.785964
1.152425191199753,0.7923365989554753,0.1979644200006089,-0.0038463272055087,0.0007323228936369,-0.0019673697930658,1.3636221287066809e-05,2.604940732720888e-06,8.017841736852255e-06,11827,5.482051,10.91433,11.872375
1.098498834065212,0.9110904692579582,0.3449543673840652,-0.004701063099113,-0.0003040813724228,0.0019729527233148,1.3909306576968976e-05,2.598621914053062e-06,7.78765709728582e-06,11828,5.540841,11.315821,12.439259
0.912268847174529,1.2083964072422675,0.3461314420099239,-0.0055612193991487,-0.0012380713632803,0.0062665610072439,1.396128365626592e-05,2.4111855260999458e-06,6.593217222870821e-06,11829,5.177712,11.067807,12.147537
0.8927754666702219,1.5114015778764802,0.3396384085654188,-0.0063579543382252,-0.0019482500033506,0.0107018028777827,1.323173689038148e-05,1.998838732577179e-06,4.522680218081131e-06,11830,3.707069,9.778391,10.715073
0.9454843171485744,1.5736615926192103,0.3711753712283178,-0.0070140273884101,-0.0024591848558161,0.0149485596742415,1.1419683860538935e-05,1.3957801291904702e-06,1.9705170327435306e-06,11831,1.79855,7.29157,8.739053
0.3400169591364197,1.4864475622016105,0.4259550612468075,-0.0074056399004789,-0.002769744817082,0.0186107253383668,8.725592368219381e-06,7.082693851860855e-07,-5.108171490174166e-07,11832,0.015634,3.764049,8.268212
-0.972689864935444,1.3701355192690057,0.5495278366564635,-0.007357017048029,-0.0029227969230915,0.0211849224272808,5.619010972303524e-06,6.086177612915316e-08,-2.4631705125810453e-06,11833,-1.531631,0.679388,9.898755
-1.7904682553286793,1.237073315127974,0.7327159991972549,-0.0068265677361422,-0.0029212504508017,0.0224532522141466,2.614253491145115e-06,-4.555151123924741e-07,-3.7072552606276895e-06,11834,-2.620385,-1.821657,10.186364
-1.6854047000099603,1.1783287869390398,0.87693116824895,-0.0059192090199356,-0.0027113009845,0.022529854553474,1.9733922158910085e-07,-8.07284549004819e-07,-4.342787713640892e-06,11835,-2.829953,-4.135663,9.068818
-1.539804228665626,1.0030158692370084,0.9483016279054628,-0.0048056452719468,-0.0022779207750426,0.0215897482593358,-1.4440026462193796e-06,-1.0245371679551854e-06,-4.659972381894454e-06,11836,-3.170133,-6.317898,7.921033
-1.6312233952202173,0.3843022147413938,1.0347521765443417,-0.0037969676272088,-0.0016224547962852,0.0200205428608714,-2.666984194170788e-06,-1.1870944549648593e-06,-5.017985064107095e-06,11837,-3.406756,-8.581774,6.569256
-1.564317033046143,-0.4095007011842851,1.1558655427680256,-0.0030128040400235,-0.0007866002810329,0.0180448228384651,-4.088909890687746e-06,-1.3741784623050603e-06,-5.619629973284034e-06,11838,-3.346277,-10.656619,5.449723
-1.3912264181104763,-1.0026093397498324,1.1986794145702726,-0.0023638845063985,0.0001253559246783,0.0156999077829082,-6.044295148708054e-06,-1.6082565479956012e-06,-6.340311808496577e-06,11839,-3.19414,-12.29538,5.317307
-1.2065813232098583,-1.5690228261063064,1.1369528647828209,-0.0017686263452945,0.0009601070011185,0.0131623151360697,-8.372787216609488e-06,-1.8592270141128325e-06,-6.931258296056275e-06,11840,-3.852608,-13.588661,6.834361
-0.915460725527484,-2.122804509619277,1.0306553032516972,-0.0010521727085315,0.0014864283986637,0.0106634690214489,-1.0633442062942433e-05,-2.089940128431123e-06,-7.318011738177382e-06,11841,-4.623105,-14.627646,8.731404
-0.595425637230679,-2.269474336930765,0.9487473873066556,-0.0001624592290489,0.0015994437465462,0.0083625660526869,-1.2423852265386214e-05,-2.266558225890044e-06,-7.500888602036596e-06,11842,-5.037633,-15.384589,9.942907
-0.3402422403427984,-2.062698166102168,1.0119511838400383,0.000801924266288,0.0013317109554261,0.0063769709674994,-1.344775387125898e-05,-2.351769684330448e-06,-7.423342970142063e-06,11843,-5.124472,-15.855881,10.4016
-0.0597262438121209,-1.8951964579448743,1.1133115952339876,0.0017706767647734,0.0007347212922624,0.0047850537004562,-1.3490987337235798e-05,-2.3232359248065544e-06,-7.14760105553052e-06,11844,-4.823789,-15.888839,10.272888
0.4805302384130838,-1.8063068433879044,0.9225385549114145,0.002634032319899,-5.296799172228644e-05,0.0035944891198054,-1.2662659254341718e-05,-2.1843879354340614e-06,-6.775520708935102e-06,11845,-4.589361,-15.520486,10.134289
1.2304548376041673,-1.66034610230133,0.632099777758694,0.0033310040401345,-0.0009297369670974,0.0027815816341622,-1.1541945888073373e-05,-1.955922274692937e-06,-6.11891771011268e-06,11846,-3.962864,-14.839921,9.70534
1.729537719808614,-1.3707674184408225,0.7260951333811396,0.0038703478957771,-0.0018321985317762,0.0022684824926495,-1.068283623471503e-05,-1.665999983499573e-06,-4.88919724794114e-06,11847,-3.568892,-13.926058,9.474914
1.7653697578766647,-1.0253090396462927,0.919224258883912,0.0042361582214545,-0.0026056779419963,0.0018537608389078,-1.0076047648016829e-05,-1.343676261743706e-06,-3.1594248890272983e-06,11848,-2.40248,-13.748792,8.588901
1.5946376411689722,-0.8729903737132434,0.6814952022991063,0.0044169659023747,-0.0030184053144396,0.0011832788547559,-9.584238894106232e-06,-1.0377163070816982e-06,-1.3480305517118929e-06,11849,-0.586227,-14.995639,7.333223
1.4815868198995743,-0.698188528097111,0.145133729053236,0.0044202581065682,-0.0030187293843135,0.0001026229808143,-9.569381497518154e-06,-8.278334467702057e-07,1.2222558293477528e-07,11850,-0.29812,-16.019984,7.413024
1.4091612595781526,-0.0940990137340958,-0.3944702966494338,0.0042668387784004,-0.0027416750383341,-0.0013417832589619,-1.0360928309637796e-05,-7.672661302908495e-07,1.03192480733622e-06,11851,1.060509,-15.689811,6.764867
1.2094220808799423,0.5940674373184073,-0.8483567456009222,0.0040122552159521,-0.0024100531694265,-0.0031020260917131,-1.1506250737780932e-05,-8.179554633105721e-07,1.373486233236122e-06,11852,1.497523,-14.815658,7.459873
0.7989740873010027,0.8109415487993801,-1.0883353783692713,0.0037565105855247,-0.0024319388261174,-0.0050269969579832,-1.2189701331250946e-05,-8.739630744112401e-07,1.3462121767174183e-06,11853,0.094682,-15.182315,9.808308
0.2381625495694361,0.698648933633662,-1.1205088035996278,0.0035396203493088,-0.0029192092793118,-0.0070260905407818,-1.1987775618108286e-05,-8.44418132724739e-07,1.319807966742096e-06,11854,-0.494409,-15.522236,11.596526
-0.2838665246261655,0.627821241625667,-1.1926228033294404,0.0033413425540979,-0.0036568477910021,-0.0090797820273269,-1.076223161979036e-05,-6.861643728864105e-07,1.6125137998667834e-06,11855,1.20602,-14.85945,8.887393
-0.5619882377149277,0.6148420645355499,-1.3264533368350333,0.0031389078642292,-0.0043976967882718,-0.0110691519520157,-8.381466611962525e-06,-3.931459334856499e-07,2.2350262615359043e-06,11856,1.801846,-13.26552,7.28831
-0.5907862224852451,0.5391734070403602,-1.3567599850108158,0.0028765199833722,-0.0047032464157918,-0.0128035880180308,-5.162398603188421e-06,-2.6726150562267692e-08,2.846231774771476e-06,11857,2.700549,-11.711719,4.945792
-0.5432210605707429,0.3748137223703835,-1.2947202926911987,0.0025397405523821,-0.0044014124209145,-0.0141947138232905,-1.989747561990732e-06,3.000443880689792e-07,3.0914042060431656e-06,11858,2.956038,-10.157766,3.787762
-0.494759502047557,0.224677463472287,-1.1280326481185825,0.0021627585274651,-0.0036311110841591,-0.0152435906474602,5.86190476736672e-07,5.332240062449016e-07,3.009323620961045e-06,11859,3.35613,-8.636383,3.264381
-0.3929664549577616,0.1857900756882474,-0.8710016826298783,0.0017698473325982,-0.0025049215691441,-0.0159757707082479,2.7976644514070923e-06,7.121225728980427e-07,2.8593134312551585e-06,11860,3.245148,-7.132736,2.927652
-0.2764967132005571,0.1372461335026096,-0.7732133620142235,0.0013975344534479,-0.001254066560055,-0.0164908979866652,4.976960472618444e-06,8.811701551363125e-07,2.7199261641955338e-06,11861,3.227705,-5.551577,2.921633
-0.2130201809576833,-0.0216786218809858,-0.8924157527704321,0.0010621055227987,-1.0231224770440844e-05,-0.0168204752094817,7.046725532692696e-06,1.040469844270272e-06,2.59160521997337e-06,11862,3.474237,-3.715093,2.743793
-0.1911577985180303,-0.1430928803420112,-0.9066972382992726,0.000751777656678,0.0012255999645393,-0.0169237350414666,8.800060435229555e-06,1.185405682964929e-06,2.5908227772619786e-06,11863,3.693856,-1.891213,2.589957
-0.1899416690795028,-0.1283153848410999,-0.6903788303913235,0.0004578545823738,0.0023555654164766,-0.0167984654677657,1.0196734107196527e-05,1.3230365568321558e-06,2.757401600882614e-06,11864,3.554107,-0.135603,3.069724
-0.163747282641646,-0.0909440240474691,-0.4618920555415123,0.0001625524445144,0.003238600431857,-0.0164479010320478,1.1234858646891908e-05,1.44649240123241e-06,2.973086983171894e-06,11865,3.269239,1.408114,3.915355
-0.0944730523616881,-0.0931589507652307,-0.3062414636683886,-0.0001440683132243,0.0038025085892713,-0.0158588479870449,1.1883334589694922e-05,1.5517602190366455e-06,3.226425423974461e-06,11866,3.252677,2.857664,4.978547
-0.0124581664315553,-0.0245208270047955,-0.1890449560201794,-0.0004609762007342,0.0040241009467437,-0.0150112454130252,1.2268519731445796e-05,1.6640817173303148e-06,3.7021678579357136e-06,11867,3.318777,4.184692,6.139222
0.1029727728209191,0.1389958247478017,-0.1513909734036908,-0.0007949266329114,0.0039166000186568,-0.0138638106410566,1.2597255415068354e-05,1.8054258228217915e-06,4.497722529388805e-06,11868,3.569596,5.450095,7.585283
0.2023118533672693,0.2691912617234061,-0.1553167753691621,-0.0011559960754622,0.0035610362887237,-0.0123471007607104,1.285977479830339e-05,1.958908395265724e-06,5.440018861974574e-06,11869,3.986098,6.675925,9.239907
0.2037225148489742,0.3576635505686298,-0.1464383889913048,-0.001566756070552,0.0030021438406018,-0.0103988066834966,1.288524743413842e-05,2.092746625410738e-06,6.329724555884417e-06,11870,4.427316,7.924569,10.879218
0.2823268423909783,0.4785581570169509,-0.1339920171749228,-0.0020675440876668,0.0022549697843889,-0.0079573009728112,1.2670147696648535e-05,2.196735519654704e-06,7.131956075385189e-06,11871,4.816035,9.185024,12.339907
0.557855399324581,0.6173344208954372,-0.0583631052169524,-0.0027126965353582,0.0013893086064511,-0.0049328281745934,1.2503352863239142e-05,2.269617527169471e-06,7.730209664486258e-06,11872,5.059992,10.293855,13.712644
0.8018151562422785,0.7812033543625577,0.0658970367709294,-0.0035789543587414,0.00051631875062,-0.0012078005300802,1.26998212330327e-05,2.287366189156224e-06,7.795131257070153e-06,11873,5.181396,11.032443,14.905936
0.8266996254927326,0.9656619801647512,0.1324653038625488,-0.0046379953853269,-0.0003051748420274,0.0031497993936242,1.3164763087281336e-05,2.1932481711107813e-06,7.029444948628061e-06,11874,4.961993,11.290525,15.277464
0.6898150128285682,1.1198407937549364,0.2147791641292126,-0.00573933545916,-0.0010618208972565,0.0078575245171691,1.332396070390484e-05,1.9146799516791843e-06,5.333995618224227e-06,11875,4.119399,10.74131,14.201803
0.6650773363647754,1.289146348636366,0.4001048166448527,-0.0066613018222038,-0.0017465906065933,0.0124881098324538,1.2608962771280368e-05,1.4212953660275963e-06,2.816642732607873e-06,11876,2.321726,9.268188,11.715939
0.7285031505735843,1.466862348662518,0.5227105649881651,-0.007049722451913,-0.0023839863747406,0.016360582695052,1.0859799263712024e-05,7.693574661362974e-07,-1.8171798306220838e-07,11877,0.265714,6.491206,9.775974
0.1750017987578317,1.5165380824443515,0.4789914263326391,-0.0067735963698714,-0.0029576172235806,0.0191488463431176,8.1724578087983e-06,5.6466555073402756e-08,-3.1497698387245303e-06,11878,-1.649638,3.084066,9.942706
-1.0519822616419494,1.3887736197683775,0.5004033194669955,-0.0059478023894221,-0.0034049697023204,0.0209074520610069,4.824800287256645e-06,-6.320627350872125e-07,-5.652434123712814e-06,11879,-3.104622,0.148406,11.176519
-1.8161083968422949,1.1577124869051634,0.7722822955771458,-0.0047237669857525,-0.0036702038866045,0.0216949528184607,1.5021606441548058e-06,-1.2020743614660635e-06,-7.473154649152909e-06,11880,-4.131486,-2.42225,10.961215
-1.689237991680746,0.8865423755974008,1.1106170506439337,-0.0034102921022239,-0.0036827716432847,0.0217606501462062,-1.0305802137548758e-06,-1.5591758541424029e-06,-8.469034624706995e-06,11881,-4.267489,-4.775938,9.633899
-1.4611997819925282,0.5167097052768291,1.2402142966981784,-0.0021608393698859,-0.0034109249060985,0.0211989000822627,-2.613410209998482e-06,-1.6986330120349393e-06,-8.629904671900806e-06,11882,-4.303692,-7.10868,8.154289
-1.438637169874047,-0.0092311441572511,1.1573105517429156,-0.0009534403646378,-0.0028721762863473,0.0199189844480321,-3.724857785927299e-06,-1.7235115010047489e-06,-8.28575674313159e-06,11883,-4.365954,-9.361969,6.583609
-1.3212060920518778,-0.5632882929945293,1.0512598750571711,0.0001547196745577,-0.0020963510060171,0.0179727720340494,-4.92807385796745e-06,-1.7365099847797589e-06,-7.829252250944375e-06,11884,-3.897075,-11.420835,5.182128
-1.175966231257011,-1.0322189565577575,1.0111430294789716,0.0011069608227945,-0.0011486382765712,0.0154762747466992,-6.450425752234193e-06,-1.7745653280234274e-06,-7.419318928607192e-06,11885,-3.263796,-13.1136,4.524268
-1.055704047331089,-1.4725663536118474,1.016440648657163,0.0018825303161351,-0.0001172788012768,0.0125602105388751,-8.226997300376544e-06,-1.852141844916868e-06,-7.16194842127278e-06,11886,-3.650053,-14.335807,5.638103
-0.8526338367030983,-1.8171919874574736,1.0282238776718948,0.0024769929688612,0.0008783406120768,0.0094218080073754,-1.004277134289704e-05,-1.974191638245236e-06,-7.175892696246343e-06,11887,-4.04384,-15.236007,7.308401
-0.6799137838174468,-1.840452504617437,1.0039035849186342,0.0029504933324344,0.0016469508181245,0.0063175931194256,-1.1533803491458876e-05,-2.092468216287674e-06,-7.339562322752304e-06,11888,-4.068849,-15.769566,8.481129
-0.4404803760293736,-1.643250901129067,0.9666163065896484,0.0034442458527969,0.0019080887555884,0.0035873772028436,-1.2320740187271878e-05,-2.1294468891470284e-06,-7.32254651179932e-06,11889,-4.010828,-15.877658,9.146777
0.1260821764088007,-1.6212097503226484,0.9284099975678468,0.0039978696068599,0.0015925912068021,0.0014215334143272,-1.2199380667548123e-05,-2.0459900506223453e-06,-6.949068833900665e-06,11890,-3.730452,-15.522244,9.375069
0.6945591991115213,-1.854406270067041,0.8119035101396181,0.0045519361303914,0.0008624800007361,-0.000154147846845,-1.131732339017122e-05,-1.8524171730085256e-06,-6.224793198275926e-06,11891,-3.432502,-14.879329,9.350287
0.8459549048864614,-2.0545108945340784,0.6409289114069243,0.0050495106210521,-2.823312273659011e-05,-0.0011496638520632,-1.0218515141243443e-05,-1.592189423476958e-06,-5.156933577774858e-06,11892,-2.746594,-14.010038,8.986501
0.9596168746259144,-1.839935280593835,0.5595643253527143,0.005385952334761,-0.0006165384764896,-0.0016932527548398,-9.347161578935402e-06,-1.310115242252766e-06,-3.8106150004176823e-06,11893,-2.225677,-13.203489,8.72869
1.3580846586251716,-1.0058605247989467,0.5552805667641523,0.0055262149682407,-0.0007424295616008,-0.0019236319551087,-8.680182548393443e-06,-1.012343273202614e-06,-2.250307723068834e-06,11894,-0.600751,-13.418224,7.60678
1.645901404122353,-0.0644538520476309,0.4579379047386717,0.0055192192384895,-0.0005805155301845,-0.0020040524609301,-8.170754675807303e-06,-7.056738663303771e-07,-5.381442240133561e-07,11895,0.844134,-14.749147,6.590084
1.574431058038784,0.3118937128628248,0.130855032683576,0.0054071113178022,-0.0003088963953051,-0.0021396132277521,-8.097333976738047e-06,-4.5786648225380274e-07,1.0126172076070288e-06,11896,1.086728,-15.587129,6.660676
1.2159360191837654,0.5241834789082114,-0.4527086402139757,0.0052636504261208,-0.0002707691788511,-0.0025678712913303,-8.693733354771864e-06,-3.460368169860436e-07,1.995517546301778e-06,11897,2.060455,-15.057692,6.092695
0.6187359795850108,1.0735476372374724,-1.0479310474244057,0.0051208646259848,-0.0005914599518043,-0.0033992186207078,-9.734383851840298e-06,-3.6346457727879733e-07,2.340672969287692e-06,11898,2.852465,-13.687934,7.289342
0.0705648176254369,1.2341292157813075,-1.2859529175201958,0.0049574095629898,-0.0011343459325879,-0.0045922791518683,-1.0681849238334349e-05,-4.271108318352497e-07,2.329581166084208e-06,11899,2.016504,-13.370287,9.970453
-0.1197674461459236,0.6104018952188921,-1.256055924496353,0.0047630380134802,-0.0018061363123078,-0.0060802924315788,-1.1038262146877138e-05,-4.522207912877148e-07,2.294580127638059e-06,11900,2.235947,-14.055936,11.121276
-0.1337794812296479,0.1176008123353466,-1.352581451358324,0.0045148757086172,-0.0024375528223645,-0.0077046880827656,-1.039079217079138e-05,-3.747196706240103e-07,2.456056945857317e-06,11901,1.476796,-13.580022,12.260536
-0.2304230227274934,0.1570141641877087,-1.5120770341502725,0.0042076725035733,-0.0029147992770074,-0.0093615352976644,-8.527155967651376e-06,-1.5853129553177532e-07,2.9262981509503427e-06,11902,3.642507,-12.259043,8.702577
-0.3533997685276874,0.1915274365943784,-1.4281485152849571,0.0038616956322949,-0.0032076601358769,-0.011008781503156,-5.746279679953815e-06,1.5342645068067245e-07,3.568032009218642e-06,11903,3.523261,-10.165939,7.203185
-0.4223086696757187,0.0442201109926776,-1.21875022200344,0.00349024490919,-0.0032860238457457,-0.0125297274816491,-2.7392357035941377e-06,4.500881131693214e-07,3.9902280645470085e-06,11904,4.137579,-8.674989,5.607144
-0.4079610558035942,-0.1519748344999405,-1.1254814236747417,0.0031103221649649,-0.0031677068643999,-0.0137606102734882,-8.588485204907698e-08,6.552323958407803e-07,4.002489347877728e-06,11905,4.306085,-7.26963,5.313333
-0.2857040394856424,-0.3451895974725808,-1.084964054437343,0.0027320484638663,-0.0028417633906355,-0.0146176620685677,2.0491479627983884e-06,7.838635937418696e-07,3.822223911927499e-06,11906,4.055207,-5.922674,4.809185
-0.1087443032186955,-0.4697489945379032,-1.0111617318157315,0.002354437138939,-0.0022675359332913,-0.015089548856974,3.8145578681928265e-06,8.894249245061929e-07,3.713710922515333e-06,11907,3.924498,-4.417037,4.808845
0.0108558696759504,-0.5458208103056267,-0.9437559863099828,0.0019784120183727,-0.001461307425092,-0.0151986655456296,5.3810533573703085e-06,9.996458970490543e-07,3.7400611585797855e-06,11908,4.22966,-2.803166,4.85392
0.0123587664262158,-0.5750448797765241,-0.8797172125589804,0.0016022432865417,-0.0004876585989894,-0.0150420462024095,6.782347152280741e-06,1.114827651855958e-06,3.848756961468808e-06,11909,4.386866,-1.116884,4.999738
-0.0209698512429474,-0.5299382844444698,-0.8015513464309951,0.0012232787803149,0.0005914604297284,-0.0146623221988922,7.953677750571534e-06,1.2210437619388637e-06,3.930454024741666e-06,11910,4.23493,0.384927,5.067236
-0.0219468025623974,-0.4844328755174863,-0.6934790953816683,0.0008386603939397,0.0016968254751914,-0.0140492491604882,8.846438602309063e-06,1.2948346898712206e-06,3.82637382652745e-06,11911,3.99785,1.698322,5.500449
-0.0083532617047644,-0.3879830752454392,-0.543644792632288,0.0004397017918586,0.0026961394698475,-0.0132424995080329,9.467376283892186e-06,1.325589994687531e-06,3.509172257042388e-06,11912,4.009784,2.887682,6.143872
0.0294214281496122,-0.1337141490542141,-0.4182864175834438,1.1350732461075982e-05,0.0033966972035727,-0.0123075833436105,9.830008871538663e-06,1.3344006234588017e-06,3.2431773453383973e-06,11913,4.094114,3.965034,6.909608
0.1045946729333931,0.1200911536096763,-0.3640369711878358,-0.0004555684765666,0.0037055784442529,-0.0112525566506978,9.949555190648748e-06,1.356394549221398e-06,3.346910689693926e-06,11914,4.28483,5.014595,7.846774
0.2205308069364668,0.2025466305247067,-0.3434983368905364,-0.0009651217059713,0.0036337336328998,-0.0100326027172791,9.856110509620455e-06,1.4018418501398145e-06,3.8295000847984304e-06,11915,4.573915,6.093523,9.185625
0.3423519580959654,0.2182881070013522,-0.3192087768031365,-0.0015232857675656,0.003213442114985,-0.0085696312750253,9.601273542730308e-06,1.4564357826388023e-06,4.469612399647365e-06,11916,5.037388,7.201486,10.875185
0.4212375972573291,0.2882302286974429,-0.2826397813607577,-0.0021352661875063,0.0025512139171386,-0.0067225894274122,9.301488454069233e-06,1.5183415686443832e-06,5.1313405171669305e-06,11917,5.583442,8.320567,12.274642
0.4764660681721303,0.3499076834216507,-0.2290745375877704,-0.0028082136145221,0.0017218667064531,-0.0044283691864526,9.163080590254309e-06,1.5949524439007994e-06,5.715398664783875e-06,11918,5.858994,9.343054,13.383965
0.5165422564103679,0.3574804765688495,-0.1583026262967241,-0.0035521441626006,0.0007694746067493,-0.0017059074884596,9.417766662454902e-06,1.6735398892680138e-06,5.967528452920211e-06,11919,6.057943,10.190815,14.147939
0.5112629174923541,0.4425686153839923,-0.0899478755528986,-0.004377075588471,-0.0001863455073915,0.0014352330465361,1.008198403403427e-05,1.7207229088960677e-06,5.681854305870875e-06,11920,6.087348,10.795253,14.289931
0.455868590561262,0.7326460910034379,-0.0423194770628597,-0.0052942138475389,-0.000962153199487,0.0049550639509143,1.074712097686855e-05,1.6845557824380768e-06,4.901384342295136e-06,11921,5.716094,11.087987,13.755689
0.4144676680280252,1.110748133698186,-0.0220654090976468,-0.0062548093534798,-0.0014691420843298,0.0087391343807918,1.0776773383611184e-05,1.4932762194136362e-06,3.659904859390593e-06,11922,4.844177,10.569906,12.599916
0.4384086211790259,1.313382017875726,-0.0184893701907941,-0.0071379027237745,-0.0017076631349491,0.0125865282846511,9.740491279210494e-06,1.1019051235603466e-06,1.881889016347872e-06,11923,3.184157,9.132416,10.827148
0.2760007787518796,1.2814598378271085,0.0600061820281167,-0.0077670376024246,-0.0016985386083113,0.0161753550439676,7.66832977158138e-06,5.623876241516287e-07,-2.279845997333233e-07,11924,1.415167,6.477152,10.132494
-0.3891367865483862,1.1828878201733786,0.3250760951758928,-0.0078739003912693,-0.0015307358947863,0.0190157314494487,4.974669508781948e-06,1.642376814653589e-09,-2.131610629623089e-06,11925,-0.323167,3.495078,11.193611
-1.2129106076003746,1.081310120344071,0.7532200364939412,-0.0073816001066781,-0.0012402901005568,0.0208825345602964,2.23123996793218e-06,-4.747475000789521e-07,-3.481977888011265e-06,11926,-1.4525,0.697529,12.139256
-1.5389990708178998,0.9889848775501489,1.2047031284657677,-0.0064259741089844,-0.0008073956450472,0.0218299450686089,4.657762774975725e-08,-8.058662543295468e-07,-4.315467318503071e-06,11927,-2.262636,-1.725168,11.67163
-1.4044574257517848,0.9332932339080476,1.472640003321873,-0.0052055540451539,-0.000258144003556,0.0219526632559899,-1.1837829260802448e-06,-9.574743769833192e-07,-4.704702753924925e-06,11928,-2.539961,-4.087456,10.320465
-1.269229403011726,0.686928341495397,1.4103905303502673,-0.0040873126315231,0.0003602963583063,0.021525936688391,-1.6881841629006024e-06,-9.67797741242984e-07,-4.6849893106285895e-06,11929,-2.876088,-6.469433,8.829243
-1.2151070433227886,0.1509173285898713,1.2089927064474404,-0.003216098170124,0.0010104369825655,0.0206605308457417,-2.217721393955322e-06,-9.61678960648098e-07,-4.530678838226109e-06,11930,-3.02431,-8.813444,7.223961
-1.1255654066631484,-0.3579834105446359,1.192834501778775,-0.0024895290029574,0.0016511978790941,0.0192830678387913,-3.3753310953225e-06,-1.050443066918541e-06,-4.63749614123063e-06,11931,-3.033673,-10.862247,6.219151
-1.011338240308202,-0.7908822445224404,1.300959760750767,-0.0018278348488609,0.0022351466156543,0.0174243124298154,-5.195581913430386e-06,-1.2499132803594795e-06,-5.136219196727014e-06,11932,-3.245408,-12.510164,6.263361
-0.8964547441806492,-1.3294760133826016,1.274769803031987,-0.001056132394552,0.0027096831379969,0.0151365632263049,-7.341155873796393e-06,-1.5176401954467712e-06,-5.915849201766349e-06,11933,-4.049186,-13.842766,7.623152
-0.7905493209539768,-1.7138204909655397,1.1460120033243455,-0.0001204530169882,0.0030293603520157,0.0125124353052927,-9.414331788670424e-06,-1.8019914824672844e-06,-6.81690266575858e-06,11934,-4.723333,-14.940571,9.187037
-0.6936906094819226,-1.6882145497551824,1.05599362302843,0.000879403393326,0.0031564701111271,0.0097282257223142,-1.1005530504565636e-05,-2.026166116310336e-06,-7.570835260495594e-06,11935,-5.213256,-15.66609,10.314349
-0.4912814026054934,-1.505879171636268,0.9906886325340212,0.001882235429408,0.0030542237281688,0.0069932781631924,-1.1746679703743534e-05,-2.106774153155389e-06,-7.84859225105038e-06,11936,-5.363279,-16.044001,10.703547
0.0501664572700235,-1.4034928029990963,0.9070389114983636,0.0027978244335305,0.0026908936932618,0.0045832045354787,-1.1531318012026828e-05,-2.030509410366957e-06,-7.564590752537501e-06,11937,-4.832889,-16.02084,10.33194
0.87751455293971,-1.394120368472156,0.765322631265357,0.0035686586349658,0.0020926967883437,0.0026408808990565,-1.0644928537054029e-05,-1.8545035641272256e-06,-6.866374123901608e-06,11938,-4.163233,-15.604627,9.830507
1.5232028854179134,-1.4089557478438222,0.6095972984635621,0.0041914374344151,0.0013560261591741,0.0011568265490369,-9.582846318329762e-06,-1.6310171036089947e-06,-5.845177068276028e-06,11939,-3.359829,-14.930273,9.35658
1.8276428554611224,-1.218844397238363,0.5811235724582033,0.0046348235176869,0.0006403372693204,8.495016174770581e-05,-8.654968482926904e-06,-1.3755651882840698e-06,-4.534359648290091e-06,11940,-2.952529,-14.110358,9.380473
2.006907204958828,-0.8944719430308018,0.595389135757801,0.0048604539963842,0.0002039467385913,-0.0007324266622179,-7.837041235520196e-06,-1.0805873341004385e-06,-3.0112126392686194e-06,11941,-2.528015,-13.790659,9.233766
2.061262378814905,-0.773240080996441,0.4762476534575196,0.0048653797150146,0.0001264488270642,-0.0013913733123953,-7.128893815267863e-06,-7.609671657206327e-07,-1.416581237084528e-06,11942,-0.711094,-14.571143,8.057759
1.9841661089203364,-0.5481822763219331,0.2859389247693618,0.0046785606848098,0.000292505690131,-0.0019254391684495,-6.872959770042962e-06,-4.948775525161334e-07,-4.4737108422764586e-08,11943,0.368594,-15.370273,7.258954
1.7424552597458796,0.2600826437222079,0.0613077255378455,0.0043632528236572,0.0005442093894173,-0.0024675110581897,-7.371480118495749e-06,-3.597363546729244e-07,8.023245568889565e-07,11944,1.696667,-14.819829,6.814408
0.9726975820404352,1.2080440690236038,-0.2430572887483599,0.0040355524255804,0.0005841105210489,-0.00322360614561,-8.32263787815826e-06,-3.450898295113032e-07,1.1417847850137789e-06,11945,2.08547,-13.670023,8.347861
-0.1382707185837728,1.4888286473483627,-0.5142710733882456,0.0037428676788395,0.0003059659162268,-0.004284690715579,-9.0619925712706e-06,-3.79496906148179e-07,1.2613911166279422e-06,11946,0.924674,-13.823226,10.538816
-0.7152704973517445,1.0046127030631695,-0.7079986964765503,0.0034616335981116,-0.0001801800188877,-0.0056357741594514,-9.150198908033813e-06,-3.9278558064230674e-07,1.427031464630854e-06,11947,0.15675,-14.44317,12.537805
-0.6706426643128514,0.3413501060076159,-0.9410273030187892,0.0031704444202685,-0.0007795476380824,-0.0072272534452875,-8.351562779827545e-06,-3.172672833537072e-07,1.8183283224294087e-06,11948,1.230997,-13.826988,10.884023
-0.6288012109372064,0.0302074212554949,-1.1288823337730869,0.0028148616004461,-0.0013102779602113,-0.0089170196214225,-6.482595632265178e-06,-1.0120294483270309e-07,2.5217507003664523e-06,11949,2.773567,-12.456938,8.442607
-0.6704023048974609,0.0432131953376569,-1.1044270105532723,0.0023818367928883,-0.0016750243771417,-0.010619010252921,-3.753338783589428e-06,2.126127609003833e-07,3.293066391757179e-06,11950,3.151388,-10.739657,7.044585
-0.6186856423670044,0.0148475974715987,-1.0076359122065195,0.0019086467258939,-0.0018842392871388,-0.0123016167432688,-8.818043315223054e-07,4.961966915136843e-07,3.647168314371424e-06,11951,3.73759,-9.327805,5.772134
-0.546685629977899,-0.1404157983184895,-1.0099931077109987,0.0014208937648432,-0.0018900203416073,-0.0138583234251516,1.527702074802013e-06,6.84589426489661e-07,3.490417208680055e-06,11952,3.759962,-7.89673,5.086274
-0.4377386246254246,-0.2062909302530481,-1.0168268344894802,0.0009550418860294,-0.0016319487513601,-0.0151313246062702,3.441940599880596e-06,8.183254442216883e-07,3.1931076851966885e-06,11953,3.703712,-6.472146,4.265733
-0.2762982716989025,-0.1661440202188428,-0.9255380009622668,0.0005312130351083,-0.0010891565537564,-0.0160415607517069,5.066042986484635e-06,9.346621288004724e-07,2.976629721696733e-06,11954,3.807739,-4.846879,3.911441
-0.1918809684644034,-0.1522428639607706,-0.8037694848024279,0.0001454358014664,-0.0002676765033911,-0.0165802599832188,6.443274523132936e-06,1.0340077134679202e-06,2.816432327023201e-06,11955,3.922244,-3.140082,3.735829
-0.1922875558602107,-0.1661330724436581,-0.750325060977211,-0.0002008721083457,0.0007856961634894,-0.0167625686485575,7.550204476804571e-06,1.1268266453853224e-06,2.7715159307342137e-06,11956,3.879126,-1.527156,3.803468
-0.2011512095000983,-0.1652527906193428,-0.7210944376896009,-0.0005109968178729,0.0019647418806074,-0.0166665805257695,8.445488215873732e-06,1.2232747392697691e-06,2.8981215500373227e-06,11957,3.795657,0.014135,4.142965
-0.1985061363540539,-0.1426584605928703,-0.6211320920204932,-0.0007880216714455,0.0031877569127522,-0.0163236609089559,9.142080218625675e-06,1.2998881217700572e-06,3.0272096929301786e-06,11958,3.567679,1.411064,4.915315
-0.176541997919748,-0.1214777943661193,-0.4843313360282381,-0.0010324947527189,0.004387905606332,-0.015718089296004,9.56428288642228e-06,1.3326124604482702e-06,3.0036318166029483e-06,11959,3.635197,2.663005,5.840523
-0.111141663905069,-0.0996098156834913,-0.3953869624933392,-0.0012542288897086,0.0054465089255585,-0.0148766814503009,9.707700944907882e-06,1.338777821672726e-06,2.965038485055836e-06,11960,3.512678,3.846843,6.916178
-0.0075561371086962,-0.0238998265992732,-0.3951108310895744,-0.0014719868295038,0.0062000589414071,-0.0138476084579537,9.664867927668896e-06,1.347929118589116e-06,3.091499169948993e-06,11961,3.559584,4.971066,7.901198
0.0218449462362794,0.0615398415647637,-0.4476762025845393,-0.0017007377674592,0.006565246003709,-0.0126152693709066,9.5382201300893e-06,1.373219868484019e-06,3.4093179222326373e-06,11962,3.695219,6.092372,8.983462
-0.0266654552861701,0.0971280773792997,-0.4602726405314135,-0.0019540860365988,0.0065390293532834,-0.0111013041152897,9.424497691356124e-06,1.42659367088682e-06,3.951099305905459e-06,11963,3.95891,7.260222,10.333069
0.1363031720435195,0.2099403989081461,-0.4245561994740295,-0.0022521426762985,0.0061450771825716,-0.0091837421027995,9.418922586875586e-06,1.5158710841519292e-06,4.688077049441835e-06,11964,4.260073,8.455425,11.520912
0.609705856357642,0.4206798159603605,-0.3862844786491994,-0.002620574254341,0.0054760018434704,-0.0066627019299343,9.581133703364264e-06,1.6217883098968645e-06,5.363571749989831e-06,11965,4.380565,9.662111,12.306775
1.0031682250347602,0.555221255599969,-0.2989656971660049,-0.0030617240335001,0.0046037394696318,-0.0035022808608093,9.875123712587517e-06,1.694131001744694e-06,5.642960633196037e-06,11966,4.480635,10.675739,13.205991
1.0803203032103983,0.6467471996761446,-0.1489877042374009,-0.0035517908477148,0.0035847394802573,0.0001509923040798,1.0179302018703978e-05,1.6810074962009926e-06,5.36236546334677e-06,11967,4.507172,11.412484,13.858662
1.0309734651403129,0.8129985562935996,-0.0926055645241364,-0.0040508575353481,0.0025513750744609,0.0040968375819789,1.0345186037123535e-05,1.5562434875357218e-06,4.52559529856417e-06,11968,4.410595,11.52008,14.201813
0.9332571562565396,0.9942048735472712,-0.1866867862544747,-0.0044894697007357,0.0017069398936926,0.0079908758026242,1.016666729111872e-05,1.3109295312610762e-06,3.1812494357936373e-06,11969,3.515905,10.857639,13.43101
0.8712702031848935,1.1696911499693936,-0.2039202621006573,-0.0048208129708841,0.0011501136116761,0.0115920503613558,9.373528088336843e-06,9.461030860747096e-07,1.5149829194071246e-06,11970,1.785825,9.228721,11.542809
0.8941908696571756,1.372556501742911,0.0390595778617411,-0.0050200821463527,0.000878251344967,0.0147666527064616,7.77304062980463e-06,4.810489792048824e-07,-1.939594430985264e-07,11971,0.074366,6.6106,10.642191
0.4565283803489303,1.4555447382854112,0.4178426057225853,-0.0050447869339911,0.0008695365139606,0.0173117365540577,5.429471327420554e-06,-3.837487883598852e-08,-1.847771835361579e-06,11972,-1.278891,3.554036,11.097661
-0.5732436681607741,1.2414358537608057,0.690824282589055,-0.0048451467126005,0.001029705582224,0.0190099606973549,2.733570404349117e-06,-5.360490551358837e-07,-3.39175246945225e-06,11973,-2.02617,0.684454,11.726972
-1.2889215453935756,0.8454388398821125,0.7865222185881711,-0.0044127066930293,0.001322023949799,0.0197729730903014,2.570107017559045e-07,-9.262750547833608e-07,-4.541891214883934e-06,11974,-2.751848,-1.651345,11.853928
-1.3421974415105469,0.4883562069102313,0.7852308460830648,-0.003783099921035,0.0017716558637905,0.0196478986837046,-1.538179475956489e-06,-1.1531111106509972e-06,-5.053427617440605e-06,11975,-2.953201,-3.825683,11.261837
-1.3670587806801011,0.1674340110328278,0.7341064708748424,-0.0030267885083295,0.0023551125877638,0.0187789345013964,-2.563037032637656e-06,-1.22609428815925e-06,-5.062015128934032e-06,11976,-3.149109,-6.147446,10.351579
-1.5532449634500338,-0.1120747241935996,0.7218507461099192,-0.0022725669280891,0.003027637484654,0.0174758812993821,-3.1870905443874e-06,-1.2188855191003128e-06,-4.862839956476924e-06,11977,-3.14604,-8.384573,8.933417
-1.49455352427062,-0.2254348088568223,0.8839776899519547,-0.0015729053507496,0.0037351984436692,0.0158859803430661,-3.995804227309982e-06,-1.2184967552896237e-06,-4.589599067217201e-06,11978,-2.59341,-10.363278,7.58234
-1.1578457448685318,-0.4202620244933592,1.126959880595959,-0.0008999629018099,0.0043963657394835,0.0139911324875524,-5.354136008439577e-06,-1.2836283861556192e-06,-4.363203267657072e-06,11979,-2.166876,-12.072744,7.010731
-0.818893833811001,-1.0663207987499053,1.2173041643614733,-0.0002293993663917,0.0049060006064584,0.0118324569607963,-7.15260843114829e-06,-1.4311181069962136e-06,-4.415851363680134e-06,11980,-3.038831,-13.419874,8.488711
-0.6093813617926533,-1.7489495030065698,1.109432612384714,0.0004990733039556,0.0051246961172908,0.0094293849506811,-8.947749900638e-06,-1.6293169531006743e-06,-4.822400367342197e-06,11981,-3.430769,-14.478256,9.894123
-0.5219625388994686,-1.8757433060144504,0.9956569284157524,0.0012985436050413,0.0050196656275497,0.0068646293388232,-1.029878086221988e-05,-1.8104552689472528e-06,-5.373774015748288e-06,11982,-3.818753,-15.034622,10.669121
-0.3565257283694879,-1.683352220853934,1.054877537626121,0.0021242551115335,0.0046801115622799,0.0043152577634935,-1.0918560650725587e-05,-1.9009732959929207e-06,-5.783670632048596e-06,11983,-3.979406,-15.220677,11.087416
0.0472462335080056,-1.562638817175411,1.122251017896077,0.0029425806991579,0.0042530112033465,0.0019631716774627,-1.069958173479685e-05,-1.8604225335025933e-06,-5.853585438593977e-06,11984,-3.877441,-14.980638,11.077649
0.5606952164396145,-1.5550956250763175,0.9445376255879798,0.003705070003175,0.0040043857806073,3.4661651921517704e-05,-9.807914636032617e-06,-1.6996705891654797e-06,-5.472921139244667e-06,11985,-3.292637,-14.45839,10.416702
1.0287940610667807,-1.5303662396876816,0.6814840571249983,0.0043739623750808,0.004032422326339,-0.0013780652429735,-8.6400970875741e-06,-1.4502576142842864e-06,-4.579517196667597e-06,11986,-2.667655,-13.68456,9.685334
1.3640363176759096,-1.0789056399960133,0.5842933885760873,0.0049287219716206,0.0042519129237292,-0.0023452329044207,-7.569736256539877e-06,-1.1433417892095837e-06,-3.2277285926192937e-06,11987,-1.995514,-12.998964,9.077499
1.482240362038395,-0.2411395443592398,0.5139564212007257,0.0053321180314611,0.0045785690712804,-0.0029989583863624,-6.812268991276244e-06,-8.313356100340084e-07,-1.7003497999572298e-06,11988,-0.000893,-13.216628,7.717442
1.4012228463012175,0.2262905133286703,0.2389853624243173,0.0055365859913621,0.0048401041676202,-0.0036122922102374,-6.569300319435863e-06,-5.909904096954125e-07,-4.0382421877735117e-07,11989,0.987297,-14.224833,6.981402
1.2634117971521135,0.2569914079599656,-0.2281634960224624,0.005532686822044,0.0049411361738236,-0.0043095740986079,-7.063479890562648e-06,-4.834999518939433e-07,3.848157638023293e-07,11990,1.323238,-14.400083,7.546245
1.139791449420192,0.5528871815459129,-0.743692902926842,0.0053509204127202,0.0048794593224948,-0.0050553192868746,-8.20218517671657e-06,-5.023898977043779e-07,6.850940426899935e-07,11991,1.570222,-13.575298,8.751539
0.7966680187037434,1.1267359233427212,-1.0979632318101435,0.0050488524647173,0.004591258985647,-0.0058657846494918,-9.404448466071906e-06,-5.683820709967163e-07,7.666306168284583e-07,11992,1.187224,-13.265949,11.437356
0.0192092750028963,1.3597794203009488,-1.1487262770632525,0.0047322080784274,0.0039909691277665,-0.0067333556612972,-9.97520628357569e-06,-5.89811853872777e-07,9.26737614728245e-07,11993,1.550776,-13.980519,11.440228
-0.8759337391228411,1.0384650718642603,-1.0958639965716024,0.0044442260058652,0.0030971204414079,-0.0076564724950794,-9.52750885322078e-06,-5.050851030688793e-07,1.3604863818191363e-06,11994,0.710964,-14.006668,12.571958
-1.2886337988376204,0.4867752473560616,-1.1895411277945978,0.0041619092152723,0.0020321949843263,-0.0086578880596347,-8.04920850160367e-06,-2.95586341349432e-07,2.062791516645244e-06,11995,2.774232,-13.14176,9.404309
-1.075884849684802,0.1719430091806427,-1.2700497627344665,0.0038661486853163,0.0010078937983373,-0.0097103395359198,-5.796472081855226e-06,-5.6884981656283636e-09,2.7639419306925928e-06,11996,3.166252,-11.557547,8.065992
-0.7031889717883723,0.1567853606524357,-1.1177045091368951,0.003509337929181,0.0003822492581995,-0.0107415013741283,-3.2102343611773545e-06,2.8015847162837065e-07,3.183565068766864e-06,11997,3.537746,-10.270347,6.664378
-0.5352720327118887,0.0237311556475739,-0.8895495943944673,0.0030822769226398,0.000288207237484,-0.0117119397386604,-7.95579558471136e-07,4.98516789534025e-07,3.289119684914208e-06,11998,3.965075,-8.998181,5.85932
-0.4837872939819225,-0.2941973788222906,-0.7944254970465224,0.0026232084580496,0.0006178385383164,-0.0126036589529526,1.1695930978143657e-06,6.483819914874048e-07,3.2539489399971188e-06,11999,4.04682,-7.637992,5.181134
-0.3733142678688258,-0.4394212022943644,-0.7461638588278815,0.0021620609181009,0.0012386992511166,-0.0133799263618116,2.81436945575383e-06,7.772434375495413e-07,3.2516459120473547e-06,12000,3.902133,-6.272382,4.431099
-0.2130060084626366,-0.3934846322379258,-0.6577211982680629,0.0017417036927926,0.001874712463993,-0.0139976339705093,4.373074367005975e-06,9.147667173479238e-07,3.2775879754916144e-06,12001,3.994601,-4.78991,3.881469
-0.1179425989163776,-0.3652504154929728,-0.61275289952475,0.0013836154874185,0.0024261610212818,-0.0144254631237296,5.843376308044454e-06,1.0457664662294086e-06,3.2297028984300377e-06,12002,4.201945,-3.264101,3.572183
-0.0454794335086876,-0.3608635738110666,-0.571109707152102,0.0010802042240315,0.0029975436105106,-0.0146410924580986,7.106472993662804e-06,1.147585929594618e-06,3.0513985715707284e-06,12003,4.069289,-1.726015,3.730659
0.0857014509410788,-0.3257624538655462,-0.4425587332994402,0.0008264151720874,0.0036513031594501,-0.0146299513138155,8.15595877552358e-06,1.2137701708331612e-06,2.734983860165732e-06,12004,3.92968,-0.290092,3.770486
0.1749067050841695,-0.2902509166242142,-0.3033875721832908,0.0006069503407677,0.0045019344054477,-0.0143911051925513,9.03186166822282e-06,1.2525830651970164e-06,2.397232353996729e-06,12005,3.705149,1.049248,4.060876
0.1883583704845992,-0.2715545521168869,-0.2286059390150686,0.0004060889615179,0.0055574815148042,-0.013910511918494,9.64088765499754e-06,1.2807993953368003e-06,2.285965028053207e-06,12006,3.730941,2.226306,4.73803
0.2012238508321638,-0.2317699847557874,-0.1707428460652578,0.0002089173699827,0.0066826296935281,-0.0131613542500196,9.845527370602278e-06,1.311780819725565e-06,2.527400245086016e-06,12007,3.669398,3.374601,5.683265
0.2264861195282429,-0.1952477937256354,-0.0773136568161558,-1.6754862176250975e-05,0.0077358099635742,-0.0121223879480149,9.75182828130297e-06,1.352639049180122e-06,2.9603610564388e-06,12008,3.692345,4.47425,6.739638
0.2366106646599369,-0.1647403126091391,-0.0060008603281597,-0.0003211020425461,0.0085053688323095,-0.0107718285988172,9.624414422755347e-06,1.4045060714038267e-06,3.343511641561916e-06,12009,3.889054,5.557454,7.956862
0.2141689666453665,-0.0016544323281379,0.0014395597072656,-0.0007277395203625,0.0088902987729968,-0.0090732748964315,9.540799981391608e-06,1.4566285527122706e-06,3.621487170504221e-06,12010,4.099112,6.672101,9.190092
0.3341087903591113,0.2647129966484344,0.0136505644770088,-0.0012340804871663,0.0089231426560703,-0.0069745525895887,9.487182602690388e-06,1.4996711697426556e-06,3.844347703755312e-06,12011,4.326686,7.774024,10.228726
0.8107604475154486,0.416110864960872,0.0513484055326361,-0.0018331839435701,0.0086363496800073,-0.0044067877786612,9.577955059847176e-06,1.5416063049890511e-06,4.002445364725786e-06,12012,4.445544,8.817129,11.05338
1.3910115129655365,0.4757124825752412,0.0793855861632775,-0.0025001638306371,0.0081246474168299,-0.0012758541765885,9.858240808981148e-06,1.5862579045040078e-06,4.086269391544177e-06,12013,4.471301,9.648445,11.866584
1.5966663109675323,0.6030260167591392,0.0955441936038548,-0.0032060080294226,0.0074563798623787,0.0023708943640186,1.0106249502810312e-05,1.6017757740524812e-06,4.0712559178957945e-06,12014,4.369584,10.154107,12.348454
1.4092805085777085,0.7684969010670746,0.0982479828676449,-0.0039151141641702,0.00666704885551,0.006321388560965,9.938468171895435e-06,1.5204586989943942e-06,3.777508144168869e-06,12015,4.103613,10.071042,12.53908
1.2756242737574288,0.9371300605088504,0.1055340833171554,-0.0045621322897749,0.0058630921872338,0.0102607994044231,9.080239746744792e-06,1.2829664897846383e-06,2.9906897805118707e-06,12016,3.341283,9.245919,12.317182
1.295967295151419,1.129624921383138,0.1332357800663217,-0.0050476468555389,0.005210432527311,0.0136886906215825,7.558828914781893e-06,8.975155201518995e-07,1.7373162237549996e-06,12017,2.111424,7.579243,11.641854
0.8233405773458742,1.2220659694733904,0.1847304545821196,-0.0053236624328188,0.0047887348824212,0.0163479316680591,5.59830724576428e-06,4.380560686925514e-07,2.660510631298649e-07,12018,0.598976,4.942353,11.763699
-0.3864875694559097,1.1531352297003463,0.3401662898237056,-0.0053944095578203,0.0045975883631844,0.0182414851453319,3.449232194977484e-06,-1.3503910504231053e-08,-1.1712187885614715e-06,12019,-0.785421,2.041802,12.471563
-1.420513862353903,1.051673505254759,0.6399032347762311,-0.0052720227553556,0.0046187377393871,0.0193584945722002,1.385644781615987e-06,-3.9787812067566513e-07,-2.387900350694626e-06,12020,-1.649039,-0.597353,12.754333
-1.5898974236148358,0.985108157912418,0.9219097233619714,-0.005003237055797,0.0047730603407938,0.019801310789514,-3.07354208219866e-07,-6.732270136498716e-07,-3.232416511207563e-06,12021,-2.355729,-2.827832,11.846634
-1.3896514250519778,0.8566515630358892,1.0283282358592285,-0.0046122486740051,0.0050300521023183,0.0196230466325047,-1.50831687534624e-06,-8.275241541571052e-07,-3.638057730463602e-06,12022,-2.148664,-4.921473,10.413554
-1.324356457193347,0.4856239446075903,1.0760028028060775,-0.0040990023095773,0.0054107648443052,0.0188131554761478,-2.424748077258685e-06,-9.05520412926454e-07,-3.730246575889741e-06,12023,-2.454031,-7.065291,9.232633
-1.2621576706381368,-0.0570180943414509,1.2276490966147209,-0.0034918963513262,0.0058964781219,0.0174925952338475,-3.432908073328086e-06,-9.846055159656483e-07,-3.7728529312069127e-06,12024,-2.622571,-9.157403,8.402175
-1.157486853861171,-0.5005087902722513,1.3774744633319045,-0.0028375106843179,0.0064516876984776,0.015892282651162,-4.741036842294875e-06,-1.112776409623786e-06,-3.970954427198689e-06,12025,-2.567338,-11.021686,7.873779
-1.0671349415208602,-0.9321960868060724,1.376433588655472,-0.0021558687044409,0.0070334075229644,0.0141374278907661,-6.309397829831059e-06,-1.2924762206274975e-06,-4.412183001105776e-06,12026,-2.837945,-12.561638,8.249924
-0.9556820641152268,-1.4581224900223453,1.289976541249359,-0.0014444847169843,0.0075764182009493,0.0122704708957955,-7.987939838868202e-06,-1.5040843974273507e-06,-5.052386277698099e-06,12027,-3.680865,-13.768761,9.652952
-0.8750361547780282,-1.7322806592428472,1.2264938970173782,-0.000692882134423,0.0079970828500299,0.0103524271300602,-9.53652390034043e-06,-1.7154031238717817e-06,-5.7138507794018205e-06,12028,-4.248482,-14.65204,10.877803
-0.7726192730491319,-1.6098376481069907,1.1655381455085974,0.0001302382077262,0.0081848375597177,0.0084163490782997,-1.0587977451179007e-05,-1.8774340991220352e-06,-6.209124097874168e-06,12029,-4.678917,-15.228665,11.614165
-0.496355536565829,-1.4375678524570108,1.0759252993622377,0.0010173993088159,0.0081080645935745,0.006516013438046,-1.0862567111761308e-05,-1.9423917335133483e-06,-6.402541058368191e-06,12030,-4.796715,-15.515382,11.769549
0.0531246659889693,-1.3750413212128234,0.972024830250771,0.0019176247394158,0.0078253045180806,0.0047336866745104,-1.0393167052884645e-05,-1.894474025934328e-06,-6.223147189626881e-06,12031,-4.532064,-15.532761,11.305994
0.8614851325910512,-1.2528785393105624,0.8022981167187284,0.0027716404482791,0.0074357891043868,0.0031227027112718,-9.45055446901928e-06,-1.7480384551179695e-06,-5.6783913020318846e-06,12032,-3.878574,-15.374184,10.196355
1.5769080162917812,-0.929955447480515,0.5681821435976196,0.0034907599531563,0.0071246876990684,0.00171771974036,-8.374689130581768e-06,-1.5351624110065364e-06,-4.845102138585958e-06,12033,-3.184551,-14.965425,9.280932
1.793688219244713,-0.3558296168073391,0.4392134066715227,0.0040299833355411,0.0069619149010674,0.0005295956762085,-7.407807004606522e-06,-1.2928625374832351e-06,-3.840224592323076e-06,12034,-2.929142,-14.47123,8.876815
1.6185527315204198,0.2306724825025959,0.4037432282489129,0.0043944030302775,0.0068917835954836,-0.0004699224300988,-6.634305710343377e-06,-1.042838652376385e-06,-2.713688419952588e-06,12035,-2.155213,-14.358164,8.466716
1.4424911805210745,0.4547834669891304,0.1922039799734478,0.0045890007945308,0.0068653206927084,-0.0013501662239371,-6.137018713317008e-06,-8.100238464301117e-07,-1.5403276713240109e-06,12036,-1.465395,-14.680405,8.222905
1.359866239718684,0.388028111443631,-0.1849271230047061,0.0046424585208715,0.0067796184896558,-0.0022399274887484,-6.036431239103732e-06,-6.376651748027943e-07,-5.578927229020457e-07,12037,-0.552661,-14.873356,7.743159
1.234789559921997,0.3350000149844331,-0.4600288521368978,0.0045707861453342,0.0065955688048856,-0.0031994533791329,-6.289809450671044e-06,-5.442989986770402e-07,7.18170399543546e-08,12038,0.520653,-14.398619,7.368136
1.0135440659010706,0.3442947362931083,-0.6057897845394005,0.004374444480677,0.0063532446151243,-0.0042190125874586,-6.607298797071259e-06,-5.001395416904105e-07,4.132051678453751e-07,12039,0.462299,-13.911898,7.90191
0.6604493407748381,0.359404450507979,-0.7487475256803651,0.0040782296304421,0.0060686235389604,-0.0052997676525029,-6.603804642320233e-06,-4.547839242646391e-07,5.890725173333519e-07,12040,0.193358,-14.385742,8.672558
0.0915518163130498,0.4034954359162419,-0.9417799135100856,0.0037253554215146,0.0057685224011123,-0.006419037335007,-5.9596079099348045e-06,-3.58973263320669e-07,7.254063726017255e-07,12041,0.28307,-14.562163,8.806081
-0.6467196206572865,0.4511092217673905,-1.2139173063030393,0.0033361187167626,0.0054690776595266,-0.0075607760905878,-4.557332145915169e-06,-1.7964877556084677e-07,9.933285799408627e-07,12042,1.603545,-13.648555,6.821301
-1.2360051434653987,0.4354697291555686,-1.478654113302314,0.0029114185029082,0.005164650143684,-0.0087200957795044,-2.603376299496796e-06,6.920192337193333e-08,1.462366225112784e-06,12043,2.330261,-12.222861,5.585809
-1.3875213519959155,0.3480010476428817,-1.5591683130299103,0.0024493681639141,0.004865123506446,-0.0098578299288658,-5.285682289531415e-07,3.206156896222379e-07,1.9268649922834945e-06,12044,2.97427,-10.889192,4.555551
-1.268519473274769,0.2219846221367755,-1.4838716053412002,0.0019344533988424,0.0045882808562462,-0.0109030747714388,1.2835002753892723e-06,5.103197886039489e-07,2.1239802390770854e-06,12045,3.399351,-9.788289,3.861714
-1.1664209861735593,0.1466651810187235,-1.3711321018806637,0.001372556632452,0.0043571841718292,-0.011825818428898,2.6928069291866512e-06,6.326716433959625e-07,2.07458719164379e-06,12046,3.519307,-8.618268,3.594516
-1.0190885427694745,0.1488585382437398,-1.2129723988355263,0.0007939409950315,0.0042071608577013,-0.0126334920223486,3.840918358702008e-06,7.217554692886509e-07,1.941950262592874e-06,12047,3.373837,-7.40209,3.58604
-0.7515029232350618,0.0845685509197872,-1.0600009940387325,0.0002296327572925,0.0041845151332606,-0.013336648504987,5.00351201731382e-06,8.039815719193285e-07,1.7469757362483677e-06,12048,3.307002,-6.122862,3.337999
-0.5498739134419749,-0.1135734401876527,-0.9896209453563454,-0.0002770740921198,0.0043517004815505,-0.0139688305600412,6.323959229152172e-06,8.906121426230467e-07,1.4605972811664403e-06,12049,3.453555,-4.746537,3.004559
-0.5192063782737155,-0.299742121982848,-0.953667403746094,-0.00070312069181,0.0047362375648432,-0.0145296588449353,7.68298415279335e-06,9.827822305425255e-07,1.137803043105637e-06,12050,3.622069,-3.359907,2.583199
-0.5289529330834244,-0.3570335300310404,-0.8899405036787045,-0.0010497463864281,0.0053267364015172,-0.0149794558529853,8.86811631922205e-06,1.0671846910564357e-06,8.216346052298104e-07,12051,3.501579,-2.010883,2.56695
-0.4821856595265325,-0.3399637851439518,-0.7944059485764632,-0.0013191110258566,0.0060993679298719,-0.0152798887866178,9.779603287006674e-06,1.1267294975228706e-06,5.110431173174267e-07,12052,3.280182,-0.761983,2.911328
-0.4263714815528838,-0.3186988093995997,-0.6814912584332354,-0.0015256779484262,0.0069984159114827,-0.0153756301342889,1.0367184752550878e-05,1.1591497086844343e-06,2.729685993043454e-07,12053,3.107557,0.432322,3.359604
-0.3952824561121443,-0.2666415738074145,-0.539260342568161,-0.0016826018179754,0.0079646698864091,-0.0152168713106812,1.0570875152946007e-05,1.1758249433753044e-06,2.2623895922799337e-07,12054,3.172831,1.580199,4.037938
-0.3274005057934866,-0.1785834005048961,-0.3828795053804923,-0.0018015582351807,0.008930708998648,-0.0147612335482807,1.046020857749565e-05,1.1850064774574852e-06,3.7078878428104393e-07,12055,3.095695,2.746694,5.083113
-0.1925728668182768,-0.1044519178284791,-0.3285146984597591,-0.0019115720074541,0.0097814471779315,-0.013945148024502,1.0206123286996055e-05,1.1889746540594106e-06,5.530058023253929e-07,12056,3.017853,3.918775,6.268895
-0.1319401980714904,-0.0410035600669361,-0.401401525796698,-0.0020591762699232,0.0103486946011063,-0.012686126228734,9.902296990495762e-06,1.1931408102674128e-06,6.488469567517828e-07,12057,3.158359,5.098095,7.517775
-0.1271673956763999,0.0411420383379131,-0.4105476002714328,-0.0022717039991164,0.0105507688528078,-0.010922362073509,9.563190108805129e-06,1.2002126915026238e-06,6.723965346830062e-07,12058,3.356072,6.270772,8.824026
0.251621683867652,0.1346790127514085,-0.271843359706598,-0.0025590888882528,0.0103947620319382,-0.008609869191907,9.199297080616768e-06,1.2030131510877358e-06,6.915585279178319e-07,12059,3.508558,7.376377,9.954666
1.0623824968097293,0.2244315589776842,-0.1035043382972861,-0.0029332654310654,0.0099066871942289,-0.0057034174557998,8.853335050617523e-06,1.194523937807432e-06,7.403502063345154e-07,12060,3.633367,8.332184,10.736704
1.6813765934945282,0.3377026287838336,0.0737796045493876,-0.0033989872924945,0.0091769628593351,-0.0021662231153269,8.585736926230011e-06,1.1664964638164446e-06,7.530233604500666e-07,12061,3.761289,8.999837,11.489461
1.7461180345684095,0.5380035316413854,0.2577450056913447,-0.0039341510756758,0.0082693781534929,0.0019047392249291,8.344084780363573e-06,1.0855616666206476e-06,5.17037247357829e-07,12062,3.762231,9.192569,11.941614
1.519013145680988,0.8489748723839682,0.341006032696465,-0.004484719024269,0.0072222989391181,0.0062516200652797,7.863633848869483e-06,8.922512929406834e-07,-2.038899895445146e-07,12063,3.215018,8.62607,11.651589
1.4313047972424735,1.1767039591226385,0.3638055201753472,-0.0049593152271027,0.0061402159492162,0.010475434381279,6.797429881766905e-06,5.416620486590126e-07,-1.5091303183282966e-06,12064,1.967444,7.20436,10.394671
1.4390805840259584,1.3594446926318506,0.4765554874587905,-0.0052123183815457,0.0051841494842346,0.0139540483618516,4.989441934383285e-06,4.1618096854601114e-08,-3.3335939133250726e-06,12065,0.475265,4.644544,9.198271
0.8844043529864726,1.3556763893978552,0.6504273139586969,-0.0051800899485209,0.0044328953141395,0.0163906659676258,2.579655308601951e-06,-5.454644606680627e-07,-5.413302565453666e-06,12066,-1.094907,1.276867,9.038914
-0.3588458021093923,1.2368521654971143,0.7408224564751668,-0.0048855681957801,0.0038879185068352,0.0178349691538418,-9.639815272359319e-08,-1.1268896321083629e-06,-7.319679608487203e-06,12067,-2.674843,-1.864686,9.203909
-1.3985462125793102,1.1251511363183246,0.7745446721011879,-0.0043606882277846,0.0035343748807911,0.0183577641428077,-2.5854494816385384e-06,-1.6084023245848988e-06,-8.692952771142222e-06,12068,-3.669682,-4.295132,8.915111
-1.6946199541039406,1.0974936123302697,0.9237885013909326,-0.0036895783904611,0.0032997940179981,0.0182225535766834,-4.468196023071044e-06,-1.919234856560899e-06,-9.398211707297423e-06,12069,-3.652727,-6.426509,7.926828
-1.6468018285512898,0.8219628488876689,1.1477188443428847,-0.0029250514215748,0.0031607019651237,0.017550592179299,-5.641518150831815e-06,-2.041169814884601e-06,-9.482350936501869e-06,12070,-3.773953,-8.43467,6.884236
-1.5521341067884105,0.011228455420727,1.2343140110034927,-0.0020853197174674,0.0031462292024976,0.0162992432286596,-6.429029143704305e-06,-2.031572422403626e-06,-9.13166892445089e-06,12071,-3.970005,-10.493221,5.717704
-1.4085418402957963,-0.7697315536874754,1.2120162900547924,-0.0012352228570458,0.0032503752509281,0.0145772458261162,-7.354268317935771e-06,-1.999026714735333e-06,-8.653268470671289e-06,12072,-3.504509,-12.353522,4.454254
-1.3115262257466132,-1.025191188325667,1.2536498339721995,-0.0004720339526814,0.0034556095561674,0.012575357453701,-8.743229784695897e-06,-2.03086188607066e-06,-8.356222787592115e-06,12073,-2.800031,-13.863317,3.639836
-1.1517870814619195,-1.2749177869038049,1.2909097244627217,0.0001819245541277,0.0037078225297014,0.0104200556545711,-1.0542843823587866e-05,-2.143275188796892e-06,-8.331693477582239e-06,12074,-2.973293,-14.823923,4.258758
-0.8848323542044652,-1.828317268142824,1.1893756785274632,0.0007789981109429,0.0038971450149108,0.008211555285072,-1.2477184532585463e-05,-2.3035430999933827e-06,-8.41314118852678e-06,12075,-3.551146,-15.45865,5.65165
-0.7373455869543808,-2.106856789916369,1.0917499728518836,0.0014107236523483,0.0038738278847394,0.0060582040538547,-1.4226083175392906e-05,-2.472828484350967e-06,-8.421196082843037e-06,12076,-3.650395,-15.774493,6.463606
-0.590633295021233,-1.9296605388212649,1.064794569877424,0.0022477332227263,0.0034227525558596,0.0040541781995648,-1.5415547644264122e-05,-2.5953556536679496e-06,-8.257317902299993e-06,12077,-3.792355,-15.767189,6.876047
-0.2169295742097841,-1.7388620963450905,0.8234194040783565,0.003320222323431,0.0024967769883785,0.0022855233825385,-1.5624883185577482e-05,-2.585333004962964e-06,-7.792205124586668e-06,12078,-3.562715,-15.474736,6.634873
0.1801271187514185,-1.646441744305842,0.2850415564916528,0.00450281477128,0.0012391665527501,0.0008275210211564,-1.4693767531898344e-05,-2.3844197354622277e-06,-6.877561193737984e-06,12079,-3.210704,-14.916408,5.788003
0.6206326783055526,-1.5249549394796955,-0.1822836018420217,0.0056423173927214,-0.0001319893189816,-0.0002758256548663,-1.2948107353720875e-05,-2.012242787431706e-06,-5.437857834568754e-06,12080,-2.287892,-14.212496,4.10958
1.5383805559579464,-1.216886470243442,-0.3104718554252654,0.006481480921475,-0.0012287943166858,-0.0010191595982258,-1.0887568304372944e-05,-1.5424091007205146e-06,-3.593535903342985e-06,12081,-0.975354,-13.384614,1.722489
2.610629207910705,-0.4801171561970735,-0.2581406324486525,0.0069099949109631,-0.0018986771875084,-0.0014178985920988,-8.858281466046622e-06,-1.0513606529703097e-06,-1.644439657695795e-06,12082,1.18621,-12.87367,-1.122791
2.972095462338518,0.3941727366989657,-0.3021591743088819,0.0069857452182054,-0.0022483162772706,-0.0015230938713844,-7.153673941412577e-06,-5.9892586327976e-07,1.57777155974608e-07,12083,3.233889,-12.775119,-3.590969
2.678634186330878,0.758564787640964,-0.5195191915832293,0.0067581113318803,-0.0023765567503546,-0.0014540926215547,-6.145847671988482e-06,-2.517881475701492e-07,1.6554937612026645e-06,12084,4.172693,-12.929133,-4.998694
2.403982612929031,0.68736427807822,-0.7679922517251809,0.0063474181875064,-0.0024993109306869,-0.0014165788665997,-6.13745503650984e-06,-7.229296391247088e-08,2.762460032061104e-06,12085,4.725738,-12.85505,-6.144903
2.3011169859009155,0.7510582085802064,-0.8477387508101301,0.0058185781057278,-0.0027207586922793,-0.0015043116282086,-7.078062305276276e-06,-4.715278232025826e-08,3.592367135295445e-06,12086,5.604851,-12.276519,-7.386668
2.0182022693047057,0.9648393144027712,-0.7782008007488073,0.0051660885057812,-0.0030074175819041,-0.0016978077636177,-8.463398903041148e-06,-7.446664578238747e-08,4.432187725884542e-06,12087,5.20435,-12.485144,-6.420744
1.2087596352868757,0.9399648653956312,-0.732094243785497,0.0044435329559034,-0.0034012862219702,-0.0019779946308519,-9.600690365947727e-06,-4.57238469418994e-08,5.5230379781171775e-06,12088,4.773739,-13.792491,-5.632341
-0.0207235741129611,0.6972699710718893,-0.7370436960212725,0.003734643953664,-0.0039605947496036,-0.0022689506774609,-9.989143216530424e-06,8.184397607343763e-08,6.8640926855886384e-06,12089,4.472121,-14.152787,-4.929752
-1.038048713903713,0.5155983845150345,-0.7275309596326183,0.0030803688046,-0.0046824962757779,-0.0025364263440072,-9.442287970394116e-06,2.9391102574229005e-07,8.221788656587242e-06,12090,6.495848,-13.241877,-8.237323
-1.4572340782825148,0.4113739538133196,-0.6874182832488849,0.0024905566735469,-0.0055171429166682,-0.0027957337381292,-8.05455367859677e-06,5.648745484033719e-07,9.399636292703649e-06,12091,6.816001,-11.610841,-10.113706
-1.5273900937209168,0.2556352985888591,-0.683054085615688,0.0019580882021281,-0.0063528196510954,-0.0030148038949814,-6.259150036724532e-06,8.589412750533822e-07,1.0433537574625785e-05,12092,7.267755,-10.607567,-12.143183
-1.5027528862933273,0.0510881938898357,-0.8009541623446029,0.0014394432668869,-0.0069856894549968,-0.0031345404095337,-4.669805167599534e-06,1.1169045610575662e-06,1.1421500581032371e-05,12093,7.077855,-10.153163,-13.046658
-1.3592569727155135,-0.0900994286464011,-0.9826146345925796,0.0009231979244692,-0.0073521531139999,-0.0031354680644028,-3.562842345808159e-06,1.300096734554163e-06,1.2269785977330289e-05,12094,7.144401,-9.565097,-14.563218
-1.1034776285980352,-0.1293478747631198,-1.093938762210759,0.0004297430918042,-0.0075355072442734,-0.0030295665311863,-2.698541302496017e-06,1.4301927581979815e-06,1.281143382644668e-05,12095,7.453699,-8.710414,-16.446312
-0.8802863356623064,-0.1342558185405398,-1.1158907014754629,-3.880554323483498e-05,-0.0076356796944516,-0.0028427050399746,-1.7673106793253133e-06,1.5534601926732286e-06,1.3107698132936554e-05,12096,7.543911,-7.810855,-17.981241
-0.789604936871018,-0.1620904367653096,-1.1006092148372308,-0.0004836804395863,-0.0078424574047609,-0.0026332046587749,-7.498070396888383e-07,1.6859702802473938e-06,1.3381603007067208e-05,12097,7.535427,-6.945593,-19.501879
-0.767247399773913,-0.1880892021255337,-1.065851055004713,-0.000901170289752,-0.008230175667993,-0.00241980410243,2.254434084257783e-07,1.8136285149452536e-06,1.3728964101167086e-05,12098,7.482984,-6.22221,-21.026347
-0.7199897435680598,-0.16690881133539,-1.0007234609891946,-0.0012875848607453,-0.0087398207682689,-0.0021790763959502,1.1056875691142126e-06,1.9332634349716936e-06,1.4145281330619753e-05,12099,7.362734,-5.646722,-22.493407
-0.6512291299997424,-0.1333444902368819,-0.9027962820164276,-0.0016331996724773,-0.0093330321163009,-0.0018938986479888,1.877994847824364e-06,2.0583423171645344e-06,1.47009335606135e-05,12100,7.163093,-5.1491,-23.97839
-0.584336142469986,-0.1248599410258146,-0.7969760527750493,-0.0019207021827699,-0.0099302210804931,-0.0015333029105225,2.5501712915923893e-06,2.1815623278413195e-06,1.5393610672349063e-05,12101,6.906814,-4.725732,-25.527261
-0.5195357062759398,-0.1280693416685915,-0.727330408855138,-0.002143348615868,-0.0105095775913326,-0.001089530296103,3.249200521061227e-06,2.2820669459265875e-06,1.6019145555284172e-05,12102,6.650838,-4.373636,-27.236759
-0.4693057607504414,-0.1409807540951476,-0.7191671521338028,-0.0023046542317625,-0.0111265195667265,-0.0005849325673826,4.070924473367636e-06,2.3635730258113665e-06,1.6456506928495366e-05,12103,6.380094,-4.089454,-29.120566
-0.4377376426632919,-0.1540065290094178,-0.7327264317100622,-0.0024089850118936,-0.0118207769205859,-4.072147560596506e-05,4.868588421230163e-06,2.4345084935655355e-06,1.6803562220725977e-05,12104,6.12992,-3.892245,-30.87806
-0.4135828791542554,-0.1478877593597024,-0.6949570772365645,-0.0024667541793221,-0.0126499256141321,0.0005095544052133,5.448155719939045e-06,2.484578991512778e-06,1.7150276373273466e-05,12105,5.800583,-3.76578,-32.584777
-0.3852051273302742,-0.1150473189396604,-0.6159255348280922,-0.0024823698914432,-0.0136395566816525,0.0010475387894647,5.829067417778931e-06,2.514253461221337e-06,1.7514766903765673e-05,12106,5.415196,-3.709821,-34.367301
-0.3591064267359088,-0.0550004806043289,-0.5389580378052026,-0.0024533198901958,-0.0147703275798572,0.0015739819740208,6.146410450089981e-06,2.5409534664941746e-06,1.7899191058662166e-05,12107,4.953521,-3.750806,-36.184256
-0.3328511063591727,-0.0012598617219621,-0.4191374238829427,-0.0023801650593143,-0.0160259319866069,0.0020847005042344,6.460651594735725e-06,2.565579580562902e-06,1.8240163385665347e-05,12108,4.430025,-3.878314,-38.191343
-0.2831187643055479,0.009871040819118,-0.2562078043539784,-0.0022634196685187,-0.0173735154133071,0.0025791038318694,6.793291695514505e-06,2.563565343183422e-06,1.8398092319488824e-05,12109,3.922844,-4.123688,-40.351931
-0.3043430384730737,-0.0015158536240625,-0.0730492809488746,-0.0021093850131623,-0.0187774700051044,0.0030466288779406,7.243419292692816e-06,2.5182167637536245e-06,1.824308522168065e-05,12110,3.41787,-4.467974,-42.570488
-0.5124112225539915,-0.0034037969686912,0.2379571299232133,-0.0019323771167886,-0.0202006887102223,0.0034628895829589,7.892835949669887e-06,2.439255802075627e-06,1.7697824645997688e-05,12111,3.024889,-4.852603,-45.132441
-0.7636710352344165,0.020362937041393,0.6255557155345557,-0.0017510197950971,-0.0215765103305673,0.0038014383259772,8.695765138083938e-06,2.329452326310604e-06,1.664584019482951e-05,12112,2.810202,-5.255249,-48.119647
-0.8292671196816693,0.1063134202715598,0.8184628825461694,-0.0015919664515823,-0.0228062628969637,0.0040276089517489,9.606617937591608e-06,2.177483054265292e-06,1.4973221657295583e-05,12113,2.651373,-5.643464,-51.679949
-0.7247035014183116,0.2386957350737731,0.7861921875474237,-0.0014690142555909,-0.0238367971668483,0.0041258202615568,1.0628717828997942e-05,1.990008072822062e-06,1.2748499245204704e-05,12114,2.247678,-5.884046,-55.508424
-0.6429570458166123,0.3088898663296411,0.7331772281707548,-0.001381751106962,-0.0246599559934618,0.0041030398959825,1.1712710826559496e-05,1.7846383136538304e-06,1.0137652032043488e-05,12115,1.826924,-5.926242,-59.607657
-0.6310295146743861,0.2715865949875256,0.7372733611461566,-0.0013282193245831,-0.0252731885413518,0.0039725663004931,1.2751991247865792e-05,1.560822352028751e-06,7.1973087601286034e-06,12116,1.615603,-5.735619,-63.988557
-0.4285644829033599,0.1727877354100352,0.7362078585151806,-0.0012979429209126,-0.0257027838782811,0.0037649584157022,1.3625942085137153e-05,1.2973713088210597e-06,3.9007789269964165e-06,12117,1.614716,-5.399793,-68.774327
0.1424797468195944,0.0214453118256949,0.6428961465727489,-0.0012840423737845,-0.0259602560168899,0.003507210355535,1.4254855189579518e-05,9.90376070229674e-07,3.655429805630628e-07,12118,1.621195,-5.137687,-73.498583
0.7471205083003734,-0.1325997487341727,0.4563072810147092,-0.0012834773827206,-0.0260415238247896,0.0032239502273609,1.4612377153485827e-05,6.762001024026193e-07,-3.055722287842234e-06,12119,1.603738,-4.977432,-78.072551
0.9689161134078544,-0.1662608200634809,0.3327348966026934,-0.0012841372135502,-0.025970376361246,0.0029605737467756,1.4677490188195256e-05,3.882669825095399e-07,-6.041890883391962e-06,12120,1.51624,-4.895536,-82.457699
0.9288834875503316,-0.098223307253257,0.3470380397255105,-0.0012662463262204,-0.0257923415255529,0.0027827929392134,1.446934605018726e-05,1.3329943592886154e-07,-8.505334258886297e-06,12121,1.309735,-4.881176,-86.388917
0.9385105168814238,-0.0560891863269413,0.376225280147212,-0.0012215162598386,-0.0255308248090833,0.0027229948178399,1.4089104770241972e-05,-8.374825801049316e-08,-1.0467754745239114e-05,12122,1.023912,-4.896949,-89.874242
0.9934451982548952,-0.0505801972836797,0.3668211020440091,-0.0011524880290334,-0.0251918389785835,0.0027801698624765,1.369389963903664e-05,-2.546684774926305e-07,-1.19500315572104e-05,12123,0.787497,-4.928608,-93.168736
1.0021127853966665,-0.0446137510522998,0.3900868732681264,-0.0010642977484563,-0.0247833228188578,0.0029448860382974,1.340677863836917e-05,-3.80792597468446e-07,-1.299493513022882e-05,12124,0.610728,-4.978965,-96.136839
0.9566410534507656,-0.0438113672935125,0.449187079928509,-0.0009704663288168,-0.0243052412208801,0.0031819052971868,1.3207891697680442e-05,-4.726827173083722e-07,-1.369230016082359e-05,12125,0.532253,-4.958326,-99.01627
0.852331297876881,0.0099441534379784,0.4688711320037287,-0.0008785219911651,-0.0237910620193267,0.0034667522380579,1.300844862682656e-05,-5.302615357878422e-07,-1.408023881558657e-05,12126,0.442807,-4.909268,-101.718812
0.7166191231562561,0.1488793540498087,0.4528608590380741,-0.0007897680061483,-0.0233146379451336,0.0037849040636966,1.2755777283690056e-05,-5.429578779116375e-07,-1.4053058388475713e-05,12127,0.357098,-4.883905,-104.62674
0.5690058529716553,0.247142379238385,0.5086902584645038,-0.0007116207087288,-0.022969085940259,0.004095756852956,1.2368633259431197e-05,-5.304713952397852e-07,-1.365247917708914e-05,12128,0.31009,-5.081535,-107.473076
