AccX_processed,AccY_processed,AccZ_processed,GyrX_kalman,GyrY_kalman,GyrZ_kalman,MagX_processed,MagY_processed,MagZ_processed,PacketCounter,Roll,Pitch,Yaw
0.0374002204808199,-0.6566323150317961,0.1860681916222138,0.0004221585732491,-0.0016104085122052,0.001106394827124,-2.042206071354664e-07,-8.651836996281644e-09,-1.2330556814070138e-07,11582,-0.014486,19.584627,25.112726
0.1032931094643996,-1.9438446557233229,0.5484954569597305,0.0004537702754101,-0.0015206017999145,0.0010192237985117,-2.2256494487151233e-08,-1.3383083247357322e-08,-6.958896037152489e-08,11583,-0.043578,19.551132,25.141004
0.1365269917568761,-2.558312226817056,0.7208974789738006,0.0004808597706003,-0.0012714264139256,0.0009237141754461,1.1266619758331093e-07,-1.9660418838585613e-08,-3.7930721430848375e-08,11584,-0.090731,19.516793,25.121331
0.1011079596355761,-1.873141084935162,0.525977391501037,0.0005088656161244,-0.0009644679212373,0.0007156284313636,2.0054746907592005e-07,-2.748384376996652e-08,-2.8330851318671853e-08,11585,-0.147605,19.476608,25.058096
0.1149380103556907,-1.91506794190096,0.536019524014315,0.0005415744389349,-0.0006537905512148,0.0004504159892586,2.413873199906761e-07,-3.6853358041499976e-08,-4.0789350034995095e-08,11586,-0.19419,19.439359,25.000533
0.12391103899508,-1.803083451438351,0.5034305227317003,0.0005806191440668,-0.0003573609756522,0.000244688770553,2.060106671652429e-07,-5.326795944800117e-08,-1.017636103568977e-07,11587,-0.220653,19.412962,24.958144
0.1192362553315356,-1.5465731489884578,0.4321695220776493,0.0006263387352965,-8.610201803115872e-05,0.000111566418529,1.0600285574780286e-07,-7.0943072824943e-08,-1.935614859061266e-07,11588,-0.247521,19.397205,24.918165
0.1123247118405585,-1.460334471939507,0.4071250519735413,0.0006769097725899,0.0001683277919663,1.8949652568731512e-05,4.365164730842103e-08,-7.595926015585987e-08,-2.3229949439058995e-07,11589,-0.275816,19.384714,24.888724
0.0867841371116024,-1.2631777041897871,0.3477941201743621,0.0007313258946813,0.000407304192912,-4.36615286698498e-05,6.42779658528979e-08,-7.012573928314704e-08,-2.057282252746796e-07,11590,-0.307944,19.369277,24.863027
0.0638458018105502,-1.0876427046991832,0.2960314399356317,0.0007892629853295,0.0006222528809365,-8.080813220135414e-05,1.229559576006925e-07,-8.595262760674035e-08,-2.34684572119528e-07,11591,-0.333794,19.355366,24.820265
0.0605034975832956,-0.935372562363144,0.2563539295445735,0.0008486319576134,0.0008183060605474,-0.00010437579698,1.690256367775992e-07,-1.4627998690308653e-07,-4.098645335092374e-07,11592,-0.334245,19.34913,24.786685
0.0681077042161943,-0.745515872736976,0.2032106216929959,0.0009059479173869,0.0010085729262305,-0.0001221476913385,2.157174381028133e-07,-2.2090193182621374e-07,-6.265786525588841e-07,11593,-0.316193,19.359022,24.770389
0.076047247029414,-0.5963874409486492,0.1363850439420608,0.000959428668964,0.0011974779685759,-0.0001433046920722,2.62756591537526e-07,-2.608781746551746e-07,-7.296767417729317e-07,11594,-0.288183,19.393566,24.780312
0.0740533515800238,-0.43291443091593,0.0434436059043694,0.0010088214993031,0.001382531372049,-0.0001769014349069,2.651630371767146e-07,-2.610538371106742e-07,-7.244123641474595e-07,11595,-0.242722,19.445265,24.782484
0.0716643148837391,-0.2595519196036005,-0.0446082904597491,0.0010540804236299,0.001558221337494,-0.0002206888363222,2.3317679746345625e-07,-2.5111216005764364e-07,-7.028111067349261e-07,11596,-0.166379,19.494673,24.786839
0.0944802470126276,-0.0879971950154121,-0.1199334737968246,0.0010962251739696,0.0017113138296179,-0.0002589970478986,2.216435210582259e-07,-2.3706616168364682e-07,-6.622461502297197e-07,11597,-0.079559,19.537943,24.80048
0.1333168988430771,0.0949254015159215,-0.2106154488109157,0.00113474361794,0.0018366579698697,-0.0002879445113458,2.3026652622485197e-07,-2.0822710774972363e-07,-5.690437860509871e-07,11598,0.033169,19.569343,24.818811
0.1443240741263339,0.2775856303476576,-0.322880531925632,0.0011673911892071,0.0019372913847165,-0.0003132223080147,1.997970472158147e-07,-1.838936239633225e-07,-5.075500450269805e-07,11599,0.165889,19.596582,24.811692
0.1189020097502521,0.4502550582212382,-0.4219589262450122,0.0011920315801434,0.0020128370200061,-0.0003338380133317,8.587858788440999e-08,-1.7949493366349864e-07,-5.431220478684429e-07,11600,0.314184,19.610469,24.771219
0.0885497756282587,0.5963287999442632,-0.4753845585855029,0.0012058323616123,0.0020632114933294,-0.0003466722703735,-8.65097327352669e-08,-1.5544562930155085e-07,-5.390333608009617e-07,11601,0.502946,19.625548,24.743755
0.072953668123063,0.7237028110026092,-0.4963427707934513,0.0012071059494989,0.0020883220637226,-0.0003517884505527,-2.507709379503447e-07,-6.448366292142318e-08,-3.188817852749693e-07,11602,0.710538,19.67794,24.684751
0.0479048553095921,0.8682520405614735,-0.5058643846162847,0.0011955954606317,0.0020868493625048,-0.0003508654854902,-3.73096803776956e-07,6.905742060538437e-08,5.388872298705901e-08,11603,0.867909,19.748556,24.593284
-0.0298842428521055,1.032275008138713,-0.5324634367279946,0.0011710446728685,0.0020589683902576,-0.0003473426964678,-4.464696618730727e-07,1.7261693991037066e-07,3.535792566431537e-07,11604,0.993582,19.774751,24.455037
-0.1297745020796754,1.1891878718282656,-0.5700062435005282,0.0011338562987743,0.0020060603026989,-0.0003476562799589,-4.612339054833874e-07,2.115109576251184e-07,4.739695518242087e-07,11605,1.091539,19.74621,24.217011
-0.1871325560399998,1.3421785610121195,-0.5070464587538863,0.0010844361184935,0.0019280375665684,-0.0003523998337996,-4.59302899996567e-07,1.975649471627746e-07,4.331761843754792e-07,11606,1.165935,19.716498,23.935766
-0.241668450586988,1.473932891563673,-0.3111170359689276,0.0010231786126236,0.0018236166570528,-0.0003558378045129,-5.03755755619816e-07,1.5061148502846098e-07,2.672966575786171e-07,11607,1.206279,19.690198,23.593722
-0.3373828961427243,1.5826913449046789,-0.1612804068525936,0.0009514992975769,0.0016913307614515,-0.000350484712234,-5.818979165171743e-07,9.972187168098341e-08,7.503677274996807e-08,11608,1.273136,19.644385,23.368193
-0.3977171269321977,1.7741372362103294,-0.1709845801313681,0.0008718831681223,0.0015288573087954,-0.0003239544512901,-6.534289597831642e-07,9.25265876843472e-08,2.4312555406439162e-08,11609,1.443617,19.603007,23.317214
-0.3819152218040049,2.0569847619223136,-0.2189185131720037,0.0007857754993399,0.0013363156578223,-0.0002707744874785,-7.051119816100168e-07,1.638497854816062e-07,2.299257401900247e-07,11610,1.613956,19.577409,23.251035
-0.3596138933063518,2.256755209069614,-0.2010090234780745,0.0006937068008029,0.0011166757821358,-0.0001932335793922,-7.186366775566296e-07,2.896266583708135e-07,6.245861321381223e-07,11611,1.794798,19.55678,23.177779
-0.3544818950205252,2.326804690732285,-0.172715437426476,0.0005964708382258,0.000874018693168,-9.33924212104426e-05,-6.736221402400975e-07,4.026739242327618e-07,1.004700981686624e-06,11612,1.969861,19.534272,23.123837
-0.3320062165635851,2.3892572505257417,-0.1956593132861006,0.0004946424693464,0.0006149279872307,2.32067161580214e-05,-5.663404736462167e-07,4.506265497784395e-07,1.20314504143827e-06,11613,2.059351,19.518745,23.047498
-0.3017442960820238,2.461760424641506,-0.2572502804268304,0.0003903379875092,0.0003475522164875,0.0001537244472715,-4.1117855559697125e-07,4.162772456792998e-07,1.158449381140098e-06,11614,2.064842,19.50796,22.923649
-0.2837503957922199,2.492107865941021,-0.3121501047685908,0.0002875966822799,8.226287021195593e-05,0.000298678734735,-2.290619054014672e-07,3.184225740852924e-07,9.237506811210924e-07,11615,2.015718,19.476464,22.767073
-0.271079860340827,2.502418526371596,-0.3367596518014839,0.0001915029073719,-0.0001656530476309,0.0004557456496617,-4.0291200764668487e-08,2.0083234587804173e-07,6.315121160466388e-07,11616,1.964975,19.448943,22.653386
-0.2561294024069117,2.497479671834771,-0.3481652570102113,0.0001091117111823,-0.0003747862046207,0.000621149375757,1.370115903185347e-07,9.632632014585e-08,3.788238542893216e-07,11617,1.927252,19.459628,22.600232
-0.2291712970678315,2.4564897037354303,-0.3570466426460264,4.432347443959566e-05,-0.0005333373224646,0.0007930893132889,3.1148708555123777e-07,1.4693995482754162e-08,1.9876814386091474e-07,11618,1.873724,19.511623,22.579106
-0.1817441496198591,2.4003056181771845,-0.361885591505578,-2.4403383537404896e-06,-0.0006395030374076,0.0009711652268008,4.977288987513483e-07,-4.6003356511771655e-08,8.85704337492533e-08,11619,1.776137,19.587748,22.553605
-0.1174871563592799,2.3476688086754027,-0.3708434452916087,-3.114223915997953e-05,-0.0006931054321758,0.0011557063529215,6.989338670332309e-07,-9.27441962773611e-08,2.522583241927285e-08,11620,1.63581,19.651984,22.540255
-0.0380629116051708,2.308368635201473,-0.3843725312128346,-4.3835860325388746e-05,-0.0007006567225089,0.0013486569652136,9.470623025711424e-07,-1.3135714230671766e-07,4.518078058681355e-09,11621,1.477955,19.710348,22.537827
0.0516732444309353,2.285128906090684,-0.3879318215908073,-4.178319251025983e-05,-0.0006653184972143,0.0015502546701129,1.24797678357045e-06,-1.6945407275320226e-07,8.905490655116226e-09,11622,1.366341,19.776612,22.559143
0.1199481874760768,2.254833623069522,-0.3741935659844039,-2.5414526945055283e-05,-0.0005867888066369,0.0017589832686539,1.5287191477900295e-06,-2.1120465317505175e-07,-3.4416596412642235e-09,11623,1.314093,19.860927,22.589069
0.1517590688735286,2.2016928126019084,-0.3609700836991296,2.529614333643e-06,-0.0004712068130951,0.0019738743631898,1.7616078315924838e-06,-2.473715018487033e-07,-1.534827695915371e-08,11624,1.296279,19.968565,22.627994
0.1858934197672354,2.1369104177124845,-0.3584460923734681,3.728851851256325e-05,-0.0003297767788524,0.0021936747147713,2.022299010610364e-06,-2.720607211261965e-07,2.4487460395583333e-08,11625,1.319214,20.093014,22.70587
0.2421746840850671,2.0763193768271044,-0.3477950933591296,7.636844971400087e-05,-0.0001677346044708,0.0024171374543249,2.3393047953616165e-06,-2.870206421321407e-07,1.208324864503305e-07,11626,1.368809,20.232414,22.792126
0.2828819591167613,2.0262926659465403,-0.3285043550877438,0.0001192429595358,1.474519465217408e-05,0.0026432060639858,2.6125368727822628e-06,-2.916460075315119e-07,2.2805671842838117e-07,11627,1.416896,20.406738,22.813983
0.2817824750327886,1.9821949770942355,-0.3223456285118986,0.0001653130141377,0.0002178053851469,0.0028702063100102,2.749276354543606e-06,-2.895265723198636e-07,2.945745453137265e-07,11628,1.474157,20.608739,22.747308
0.2686992015904851,1.936749294377268,-0.3287923837734628,0.0002149770040149,0.0004447186770754,0.0030958656515814,2.773643635321424e-06,-2.798069845820321e-07,3.370492257825592e-07,11629,1.571386,20.817806,22.643848
0.2844336876490961,1.8877855866990851,-0.3333224863727057,0.000265971270652,0.0006921603668914,0.0033175162902341,2.7316414182176984e-06,-2.52581569015578e-07,4.070594364316469e-07,11630,1.67685,21.05032,22.523853
0.3180487252670513,1.8233938429950536,-0.3316353316979297,0.0003128471917994,0.0009490923659424,0.0035317962442401,2.638784764588429e-06,-2.0702133613233883e-07,5.112342699071057e-07,11631,1.815664,21.304416,22.441333
0.3160041289439597,1.7462882904448798,-0.3331667975660818,0.0003491552265123,0.0012028142108807,0.0037342840978013,2.566774624200288e-06,-1.4223300426190326e-07,6.82651924908667e-07,11632,1.943848,21.58529,22.365498
0.2562213321916426,1.703830869415976,-0.35174205791793,0.0003659251679526,0.0014352886524998,0.00391916493099,2.581302714485772e-06,-4.679004533077107e-08,9.872627749000751e-07,11633,2.062003,21.912183,22.32164
0.1729045929690813,1.7089765399268682,-0.3779640284744854,0.0003584661718777,0.0016368550531781,0.0040820565371576,2.607140728872523e-06,6.36705758135429e-08,1.3442436228127252e-06,11634,2.173803,22.301177,22.267614
0.1022615404287327,1.6894730077038158,-0.3876878117346573,0.000326943477277,0.001807461805246,0.0042199739648002,2.5057743726782574e-06,1.4738881340534524e-07,1.5631853572459376e-06,11635,2.284538,22.737104,22.181912
0.0687971043480312,1.597041194028368,-0.3844189086825194,0.0002721276647383,0.0019475252840656,0.0043295513845189,2.2402188280721565e-06,2.078557038902601e-07,1.6410301866614595e-06,11636,2.404079,23.22013,22.044241
0.0682820884316019,1.473206315730313,-0.3847316030111786,0.0001977495295638,0.0020625305872613,0.0044077445496082,1.8754966731021132e-06,2.849289770223913e-07,1.7312357487558354e-06,11637,2.538169,23.75352,21.874281
0.0050705051587564,1.3586504738421594,-0.3800299832756985,0.0001070455996487,0.0021561545719804,0.0044495963266753,1.465890175827001e-06,3.7592583010156266e-07,1.8453997647693523e-06,11638,2.64181,24.31926,21.650917
-0.2008040753577314,1.2476897952494856,-0.3631903356371013,2.8370591667678394e-06,0.0022300057950902,0.0044477380610384,1.0627459789638516e-06,4.457766937197488e-07,1.8930336229463024e-06,11639,2.692448,24.88694,21.369715
-0.443152944407461,1.1365128490508505,-0.3456477328462046,-0.0001082058154046,0.0022915821616356,0.0043936069859789,7.493089439344225e-07,4.789578830890018e-07,1.8624010855718493e-06,11640,2.657023,25.426459,21.094139
-0.5596762937100692,1.028351523307756,-0.3219377242542031,-0.0002155960513412,0.002353590352662,0.0042762954005287,5.328471510537148e-07,4.801513820927207e-07,1.7721160669447043e-06,11641,2.574072,25.935004,20.896315
-0.5660765053211001,0.920276097409028,-0.2863074962501228,-0.0003135247948318,0.0024221758618704,0.0040907207110768,3.2982097780441784e-07,4.490424324901561e-07,1.583687344671086e-06,11642,2.419053,26.436454,20.696523
-0.5706721864593776,0.810275818227127,-0.2672270627516758,-0.0004005549377871,0.002497539430114,0.0038384509118803,1.0230568370389075e-07,3.776218935457876e-07,1.254115684338439e-06,11643,2.206257,26.926192,20.482987
-0.5780500875369834,0.6902576672604261,-0.2758207591456373,-0.0004753007982667,0.0025793989059383,0.0035234708836379,-7.789655624016894e-08,2.855920380558223e-07,8.760987985751057e-07,11644,1.96144,27.382446,20.269782
-0.5642242723865429,0.5499881853071833,-0.2617869395698405,-0.000538727586823,0.0026637954725063,0.0031554759255492,-8.946804675402072e-08,2.075144284196384e-07,6.128836253607125e-07,11645,1.733076,27.788501,20.064203
-0.5824398057063724,0.4123082278192054,-0.1888846995602445,-0.0005875435878257,0.002752469232521,0.0027462531162349,1.0777269963361463e-07,1.4066889177143076e-07,4.762126040999428e-07,11646,1.449908,28.132778,19.846715
-0.6411889704567597,0.3117919084579521,-0.1108283817035983,-0.0006134114972265,0.0028537613770337,0.0023108676765721,4.026719766612358e-07,6.295173285022969e-08,3.480855272387813e-07,11647,1.18879,28.373869,19.734139
-0.6991627910521556,0.2259317289743031,-0.0791003472457923,-0.0006074928959603,0.0029760363260511,0.0018742475457895,5.992533818938328e-07,-4.0775065162129435e-08,9.49175607801173e-08,11648,0.961971,28.425361,19.757437
-0.7792042795225786,0.1543346136750181,-0.0640232678914027,-0.0005580859359194,0.0031307681184173,0.0014730483435753,5.647219372632514e-07,-1.679168695167816e-07,-3.310341567015751e-07,11649,0.751282,28.36652,19.618815
-0.8348978659871333,0.1176913034801328,-0.076588517260232,-0.0004600619863736,0.0033218699882304,0.0011265864796267,3.510405245935478e-07,-2.786481945489108e-07,-7.807771687759711e-07,11650,0.3916,28.478372,18.944976
-0.8794271010917858,0.0039866059740761,-0.1821883094029877,-0.0003160900421938,0.0035441051714931,0.0008364694633303,1.2022555071858897e-07,-3.447333266355223e-07,-1.0953015168380124e-06,11651,-0.10803,28.784942,17.666149
-1.2513839688332418,-0.2134933993026266,-0.3288455904029857,-0.0001309295639413,0.0037897475561769,0.0006020544379645,-5.673204375623901e-08,-3.7762142019818557e-07,-1.2789543968626744e-06,11652,-0.248068,29.010863,16.841905
-2.0154540989195766,-0.3157275289609189,-0.3846107339541176,8.480796819505159e-05,0.0040442048252146,0.0004114279536747,-2.456363362953499e-07,-3.774699973603586e-07,-1.3597712254429838e-06,11653,0.042046,29.037507,17.089771
-2.5814769226637155,-0.2179214720623895,-0.3482343328445094,0.0003195275018007,0.0042896443304085,0.0002608631898228,-5.492638925362947e-07,-3.352359666710901e-07,-1.353634912117476e-06,11654,0.262589,29.094737,17.163851
-2.586571390396424,-0.0687688587896679,-0.3584726662395179,0.0005598245740912,0.0045036034159463,0.0001556535604227,-1.056229606963606e-06,-2.703661516732068e-07,-1.3609138019167928e-06,11655,0.205783,29.225226,16.300252
-2.3493803723287963,0.0424937078390534,-0.4784769394630905,0.000783141461121,0.0046508956440868,9.249769170559451e-05,-1.7715805991548486e-06,-2.2075364073014921e-07,-1.5053545624332202e-06,11656,0.028575,29.365231,14.779456
-2.1510975478133307,0.0774864520662985,-0.5829506631749973,0.0009565972766941,0.0046809765087403,6.337445443782871e-05,-2.497146711670125e-06,-1.989017418539893e-07,-1.7428883096876524e-06,11657,-0.091708,29.514724,13.392839
-1.9385259822276908,0.0148294520110333,-0.5477920627490025,0.0010635451066886,0.0045775069691447,6.543530288145557e-05,-2.932478273302206e-06,-1.7261536770417766e-07,-1.842570770277244e-06,11658,-0.031158,29.628594,12.677927
-1.707730519353682,-0.0711135260404832,-0.4196329596293751,0.0011039286193052,0.0043612223363851,9.9180286348088e-05,-2.965454916187105e-06,-1.0814392390075203e-07,-1.6483635801980583e-06,11659,0.196303,29.650513,12.490891
-1.5137934414722412,-0.2100639888736798,-0.2722598106179389,0.0010807842306671,0.0040667381091443,0.0001659818219452,-2.7677229721628426e-06,-7.332731630135674e-09,-1.238931633768504e-06,11660,0.474644,29.66547,12.455457
-1.34949652120493,-0.4398644825650327,-0.1084792249741726,0.0010087373511173,0.0037613526565359,0.0002702798385334,-2.607730247158878e-06,1.0107560388026018e-07,-8.208278532816327e-07,11661,0.69311,29.729242,12.317847
-1.2035136982125465,-0.5277844330878544,0.0156429558928428,0.0008965069882384,0.0034738062523276,0.0004087953010108,-2.632735588275073e-06,1.7605072638135258e-07,-5.880908289897919e-07,11662,0.796632,29.842163,12.022788
-1.0317384820773292,-0.3933629318881084,0.0387861828767019,0.0007468040325064,0.0031909925969701,0.0005694400242818,-2.810569554840487e-06,1.955129935602115e-07,-5.974050153640883e-07,11663,0.807705,29.962624,11.704264
-0.7772870851854514,-0.2997241272935463,0.0272762354489866,0.0005732873797289,0.0029078766167894,0.0007370609910097,-2.9961613379167616e-06,1.8100507069643537e-07,-7.192609542243099e-07,11664,0.772442,30.069342,11.461286
-0.4570572963336485,-0.3440816862331941,0.0497450168344627,0.0003981466466256,0.0026075658208596,0.0008891478648177,-3.0501773999642444e-06,1.5860650880325434e-07,-8.117620994743526e-07,11665,0.762222,30.180679,11.325437
-0.1832295900083212,-0.4044892493101688,0.0809368333046451,0.0002319737129985,0.0022867121346579,0.0010133704842719,-2.9495474998347958e-06,1.3111686857079453e-07,-8.547481696754501e-07,11666,0.783311,30.334896,11.21641
-0.034702296694962,-0.4347679468511992,0.1018486663616335,7.500328155005408e-05,0.0019609849823301,0.0011087157157693,-2.795167030969393e-06,1.1319963864681936e-07,-8.431478051078789e-07,11667,0.871335,30.531934,11.136996
0.0837344575590209,-0.435760171835704,0.1219160535869858,-7.457108789353105e-05,0.0016378695417121,0.0011738043745897,-2.7118017079397576e-06,1.3265549865582833e-07,-7.395761158366478e-07,11668,0.9974,30.745961,11.126166
0.3138783896866158,-0.3895327994717631,0.1384975293901376,-0.0002262683531715,0.0013244783583334,0.0012123403827868,-2.728370991932039e-06,1.895284071036911e-07,-5.545211192880609e-07,11669,1.160746,30.921421,11.199388
0.6308335637397168,-0.3541874731999994,0.1515493450660724,-0.0003806574279682,0.0010217209651937,0.0012233545973337,-2.76590300262499e-06,2.563294584177064e-07,-3.461927968539963e-07,11670,1.273036,31.070795,11.307701
0.8715726923167565,-0.4033919031964437,0.16294362387499,-0.0005283961759888,0.0007199405859103,0.00120010964956,-2.7227619263150583e-06,3.1199363871954786e-07,-1.4499156410557385e-07,11671,1.296068,31.242388,11.366388
0.9469650651365152,-0.4231413418671949,0.1710938219031293,-0.0006625922239699,0.0004061050095975,0.0011393461464665,-2.555502772012208e-06,3.4716814142513614e-07,3.7179936049719496e-08,11672,1.250245,31.392917,11.419112
0.9408451507074568,-0.3872412295254214,0.1901985402796757,-0.0007742092324888,5.9290964491136734e-05,0.0010388225932693,-2.3408210954104845e-06,3.39342674137689e-07,9.885040826854329e-08,11673,1.172813,31.505357,11.535072
0.974727146429143,-0.6359317826107318,0.2230799122591312,-0.0008573694320827,-0.000326487080979,0.000894274819624,-2.2232933745595706e-06,2.685231538905352e-07,-8.380376937369964e-08,11674,1.040599,31.57171,11.776366
1.0783385842443924,-1.219664256380634,0.2414057877152235,-0.0009108633579402,-0.0007400575058254,0.0007002214532836,-2.268454719919517e-06,1.492993437990756e-07,-4.901941381623585e-07,11675,0.852259,31.588794,12.103652
1.220973453539459,-1.6007456289717426,0.2496572879367126,-0.000932352918553,-0.001166972259993,0.0004495052209264,-2.3967365753481742e-06,8.608938340211254e-09,-9.968238794289771e-07,11676,0.65674,31.77557,12.025526
1.3246493167085611,-1.5437647773923289,0.2612483898045884,-0.0009203123139472,-0.0015811501623663,0.0001324001740214,-2.416332708985959e-06,-1.30242593846445e-07,-1.4465423980864877e-06,11677,0.11346,32.080791,11.455012
1.3392668355181294,-1.4037282387169778,0.2208371716864798,-0.0008735809909463,-0.0019573952101448,-0.0002600920241225,-2.148636877474516e-06,-2.385852795504036e-07,-1.6759824801630135e-06,11678,-0.353232,32.21661,11.246113
1.3349596065582814,-1.3599126450445758,0.0838983488363791,-0.0007909606325242,-0.0022705726927788,-0.0007367217297755,-1.5441933856282706e-06,-3.047206057701678e-07,-1.6317583897458935e-06,11679,-0.167271,32.07567,12.410249
1.3313504643625294,-1.2967152475833097,-0.1025112408969075,-0.0006733074706974,-0.002479724260325,-0.0013088207437945,-6.841369503973005e-07,-3.528788362255871e-07,-1.4247338126532012e-06,11680,-0.073093,31.857362,13.6099
1.3059464164638843,-1.226420922971638,-0.2481980998924905,-0.0005236993199513,-0.0025274914422402,-0.0019902067224391,2.321355185523218e-07,-4.091192578603778e-07,-1.2186519586997918e-06,11681,-0.179758,31.660187,14.242519
1.3822563363389762,-1.1724613480755273,-0.292315469434667,-0.0003440706674939,-0.0023862377234061,-0.0027716063248611,9.88926641923815e-07,-4.5953324254702404e-07,-1.062035581967736e-06,11682,-0.329442,31.386087,14.356149
1.608331324243215,-1.1121910445528176,-0.2521208999384127,-0.0001356823447661,-0.0020589540693448,-0.0036167815177856,1.544807023199406e-06,-4.777968370344605e-07,-8.902611677716748e-07,11683,-0.458685,31.001759,14.244417
1.807367856129888,-1.0642901746433184,-0.2036358256057638,9.868597984239608e-05,-0.001557771579845,-0.0044703011854442,2.0064456288091603e-06,-4.735567693900103e-07,-6.82114846892842e-07,11684,-0.470807,30.490899,14.228937
1.8695899890224432,-0.9733911081879624,-0.1825550215667702,0.0003551149062843,-0.0009197449880047,-0.0052438657947878,2.43655170936636e-06,-4.682649451971284e-07,-4.738821823410637e-07,11685,-0.349956,29.834165,14.22943
1.8364527469154763,-0.818279789161712,-0.1607433402277651,0.0006252278820843,-0.0001778480000558,-0.005888667199749,2.825519434015767e-06,-4.5649103556919966e-07,-2.596696594065153e-07,11686,-0.169951,29.084358,14.063033
1.7447363982236035,-0.6859939135163374,-0.1292362286151167,0.0008948343522349,0.0006367337074747,-0.0063972902974146,3.2031693907405027e-06,-4.248867226534557e-07,5.801711788333946e-09,11687,-0.003902,28.308859,13.702141
1.6802599422969335,-0.6362141835900876,-0.1021631353887118,0.0011442854864411,0.0014619561437616,-0.0067568008305225,3.609839117891885e-06,-3.8252754540092114e-07,3.132197987351144e-07,11688,0.163713,27.559596,13.205934
1.711428204086546,-0.6281065396094486,-0.0717351761727269,0.0013456048024173,0.0022047587484494,-0.0069689865703837,3.963382433386059e-06,-3.475378344589029e-07,5.77686910222954e-07,11689,0.330018,26.859529,12.709502
1.7418457395004785,-0.5383692519129113,-0.0361996178459178,0.0014844857282163,0.002817696543054,-0.0070320381182593,4.116682021498031e-06,-3.168100525392971e-07,7.457680968132654e-07,11690,0.502963,26.230595,12.188867
1.70576584092795,-0.3247911558516942,-0.0299611771958164,0.0015613716517333,0.0032982464036724,-0.0069380960848735,4.010799736262462e-06,-2.775574678079993e-07,8.299647755830771e-07,11691,0.667062,25.679946,11.559057
1.6525855768187625,-0.1229255985403744,-0.0744533758257904,0.0015790318598716,0.0036513224496153,-0.0067004484638937,3.6553520611005448e-06,-2.3226410595214077e-07,8.299363088377822e-07,11692,0.841436,25.211034,10.74907
1.6095130366158583,-0.0598255803535943,-0.1195829852642059,0.001549906302731,0.0039126493912822,-0.0063522416234985,3.0883144618409974e-06,-1.851631039558661e-07,7.492879638974835e-07,11693,1.041636,24.806022,9.852205
1.560844330688818,-0.0781174818761369,-0.1107412248596332,0.0014831640971157,0.0040938417899468,-0.0059120479368977,2.4481169577422447e-06,-1.2583171756780805e-07,6.717216571105418e-07,11694,1.280553,24.421789,9.040121
1.4891824370891231,-0.0749296420943714,-0.0703658224072175,0.0013848064952355,0.0041803289533276,-0.0053880960429175,1.8966003880279065e-06,-4.7657856746557214e-08,6.812724603785439e-07,11695,1.50866,24.062626,8.349118
1.4099203236167226,-0.0671729817661176,-0.0375372141581703,0.0012716741979069,0.004178855671309,-0.0047972564505657,1.4354232691239242e-06,3.2948789822790674e-08,7.317986388345599e-07,11696,1.729307,23.712506,7.793117
1.3351168175324286,-0.0668032230884063,-0.0116044586888061,0.0011703899787992,0.0041059815311381,-0.0041592341793644,9.839107039837366e-07,9.977514429323134e-08,7.449255486642168e-07,11697,1.949206,23.395735,7.267448
1.2385825534393629,-0.0479911883751763,0.0155071623963578,0.0010928109313602,0.0039655441781078,-0.0034890538827576,5.454137811779862e-07,1.5538979385335261e-07,7.313286880609621e-07,11698,2.114795,23.131454,6.810524
1.1019126375525323,-0.117416061728904,0.0502533719423029,0.0010365763037104,0.0037532043011953,-0.0027985197441824,1.315776106865458e-07,1.951402971965172e-07,6.783781582768785e-07,11699,2.221298,22.965633,6.328639
0.9596082922583647,-0.376963585477747,0.1061554797083481,0.0009961941120853,0.0034597070422274,-0.0020962782323404,-3.309089577695419e-07,2.124393340658035e-07,5.308670368693111e-07,11700,2.300105,22.898925,5.792218
0.8670685360427285,-0.6651981788011025,0.2124308616419935,0.0009555286761176,0.0030653583520756,-0.0013855358011441,-8.654567163996841e-07,2.300769344308201e-07,3.509109813681578e-07,11701,2.443832,22.851545,5.32496
0.7935222261394023,-0.7638871236891012,0.3813059099146011,0.0009057606247777,0.0025652957852396,-0.0006756194166191,-1.3337154388967768e-06,2.835339396549858e-07,3.144395496581897e-07,11702,2.568824,22.790226,4.895354
0.6197003441542839,-0.7232583114367674,0.508049017038557,0.0008456976536076,0.0019704124779318,1.8044342219731765e-05,-1.615608946432846e-06,3.830329085874479e-07,5.103812697329579e-07,11703,2.659546,22.745527,4.617914
0.2752126522281163,-0.6823714183050492,0.559644029299061,0.0007660380313362,0.0012917682242258,0.0006813929929232,-1.7905300817921215e-06,4.89139161336886e-07,7.81531776856181e-07,11704,2.77508,22.749164,4.531233
-0.1520213083699763,-0.627370067935813,0.7551187688998696,0.0006526878365796,0.0005482188098769,0.0012987821340065,-2.017406910017625e-06,5.452597721946205e-07,8.761697697019386e-07,11705,3.119952,22.704251,4.820099
-0.4637072752362177,-0.5750115100181521,1.1111158363495033,0.0005005228758108,-0.0002483757625078,0.001854635256798,-2.339677306652956e-06,5.487937302134841e-07,7.591721250772096e-07,11706,3.442165,22.735593,5.31303
-0.6259697885213195,-0.5528098049248726,1.337776749776341,0.0003125308522423,-0.0010945787158137,0.0023339110342434,-2.687856000762828e-06,5.328380249828719e-07,5.603937063761089e-07,11707,3.492419,23.050033,5.785088
-0.8568054435416427,-0.4079210514478062,1.4192256228361857,9.58918441203182e-05,-0.0019818784252085,0.0027187840002395,-3.022937384542055e-06,4.994326899965122e-07,3.043867376808128e-07,11708,3.12297,23.612643,5.598838
-1.2097690255247169,-0.1157842080168539,1.528140936197281,-0.0001334803765379,-0.0029003556359107,0.0029886615779035,-3.3250124759444874e-06,4.397691090462412e-07,-2.3170912324141497e-08,11709,2.795488,24.074762,5.349414
-1.4164414106594445,0.0649027351115168,1.585362121496876,-0.0003620195388647,-0.0038313527598435,0.0031459456991876,-3.4504093089698086e-06,3.812416141192305e-07,-2.682201601217655e-07,11710,2.934199,24.223366,5.730458
-1.3685598929521794,0.060357451185763,1.4747119474068393,-0.0005774742054889,-0.0047439599518496,0.0032197465590376,-3.2428263195893265e-06,3.481681426087324e-07,-2.837140994337629e-07,11711,3.123577,24.253089,6.685372
-1.300129462128916,0.1154261915836692,1.256774345165323,-0.0007580571506496,-0.0055986798992552,0.0032579654051232,-2.7631153889976703e-06,3.1232865262917165e-07,-1.864136868472749e-07,11712,3.01666,24.342095,7.454462
-1.3000494496661863,0.3163280137569675,1.0077753570058867,-0.0008728424050508,-0.0063416617959601,0.003340844270067,-2.202418807220356e-06,2.4681025472505284e-07,-1.4908215524979088e-07,11713,2.689478,24.372162,8.027421
-1.1880644239763796,0.5224316843476313,0.811802483859411,-0.0009073073111109,-0.0069421855795297,0.0035020576500904,-1.6282275526813244e-06,1.7737849387589073e-07,-1.2400269907980744e-07,11714,2.44856,24.290438,8.7107
-0.963567596679856,0.6901533756055027,0.7342109774372633,-0.0008636093989166,-0.0073947874042569,0.0037252476699863,-9.881135965509518e-07,1.373756270147289e-07,1.8939888797603437e-08,11715,2.246686,24.223973,9.377961
-0.8136528593526521,0.7889131429131855,0.6980149641634139,-0.0007490640858987,-0.0076972457954416,0.0039921366123264,-3.1745535756156e-07,1.2777238232097188e-07,2.732001352167501e-07,11716,2.048666,24.259668,9.969203
-0.7855856425388051,0.7698920128518574,0.6271757501049449,-0.0005848114371044,-0.007863065505169,0.0042579210387949,2.530712801481706e-07,1.3220904800903996e-07,5.328022353601852e-07,11717,1.926063,24.370114,10.564524
-0.7535674585708088,0.7472571012061695,0.5253397712237956,-0.0003888017198467,-0.0078993106749088,0.004498311250727,6.726126451282977e-07,1.3977985586322666e-07,7.397155127089148e-07,11718,1.862989,24.521428,11.275404
-0.5841270635228848,0.8047509092101315,0.4060495004883182,-0.0001769314803713,-0.0078063496377573,0.0047130660536257,9.74674164243706e-07,1.4773410328256825e-07,8.982689134285573e-07,11719,1.855513,24.68875,12.126728
-0.3108659353908549,0.8291673435123394,0.3131891349219893,1.8703832364469844e-05,-0.00760132749978,0.0048816261132508,1.177041274947717e-06,1.5800604002855478e-07,1.0224437689809869e-06,11720,1.917451,24.86345,13.037903
-0.1174566147407163,0.7512523144037225,0.2575541512339395,0.0001502660121192,-0.0073157268222616,0.0049733107345163,1.3202939542612874e-06,1.8087837693841504e-07,1.1624174101588635e-06,11721,1.998308,25.064002,13.886618
-0.0736070800786207,0.6698440356660299,0.2020996038615851,0.0001950954004179,-0.0069630507441934,0.0049718506564661,1.4960644578186231e-06,2.214365262919527e-07,1.3728781837262145e-06,11722,2.093537,25.307368,14.655076
-0.0245642378979624,0.6211513712050587,0.1499204915676507,0.0001555925070435,-0.0065406887628016,0.0048714160642519,1.723959432388043e-06,2.710675837101565e-07,1.6335740118518574e-06,11723,2.203937,25.567983,15.40174
0.095490187509649,0.5127673920411464,0.1132285374864058,4.005842193205325e-05,-0.0060446069482712,0.0046719913009311,1.9109812467979325e-06,3.192207259648863e-07,1.8693347139449848e-06,11724,2.267243,25.831754,16.136017
0.1452306299972899,0.3462294797156494,0.0782527268464671,-0.0001242473994772,-0.0054606300978605,0.0043859319218085,1.9569467200350417e-06,3.4755617843217826e-07,1.9775792822230983e-06,11725,2.296885,26.136236,16.800028
0.0973931388591844,0.2262221459490469,0.0439877392067602,-0.000319609283331,-0.0047909271778992,0.0040138264637353,1.8162275601224853e-06,3.333558999834236e-07,1.8668335903601192e-06,11726,2.278679,26.478422,17.347516
0.0569439386141679,0.172127755854088,0.0163217377985454,-0.0005376716539584,-0.0040565793686076,0.0035444414427253,1.5316388823967126e-06,2.702937910290325e-07,1.5366267087636569e-06,11727,2.19302,26.847873,17.763574
0.0393894434520096,0.0704338935372417,-0.0253424636298655,-0.0007523886370029,-0.0032793621873198,0.0029719297306656,1.2016296533399136e-06,1.6472528080431654e-07,1.0505794018779768e-06,11728,2.069114,27.20007,18.121775
0.0048572625959382,-0.2002866042111088,-0.0898710169962459,-0.0009238311202824,-0.002490622677492,0.0022902461944284,8.965151492464058e-07,2.8842539674895925e-08,4.79942729724606e-07,11729,1.892295,27.509948,18.398778
-0.0594603181475179,-0.5993686862956059,-0.1439729515023384,-0.0010320108292831,-0.0017075289463437,0.0014964809912064,7.059403172106997e-07,-1.2152685286399374e-07,-8.352598144748487e-08,11730,1.64791,27.748144,18.584704
-0.1560963599746327,-0.9147279785869316,-0.174645664550219,-0.001075144441139,-0.0009302425954189,0.0005932635721036,7.117213097896465e-07,-2.824712981471716e-07,-5.927997933834612e-07,11731,1.312516,27.839104,18.670568
-0.2632516881014972,-0.9891971137126292,-0.1873953185300844,-0.001055725788712,-0.0001597250792049,-0.0004159626565318,8.279586193802664e-07,-4.508709137458693e-07,-1.079515415551861e-06,11732,0.937529,27.794665,18.876834
-0.3284731205909687,-0.9117655151601128,-0.1874972968481348,-0.0009904214602128,0.0006101662228856,-0.0015246969053303,8.450311773134546e-07,-6.008049756810095e-07,-1.555270042147436e-06,11733,0.638151,27.63183,19.273569
-0.3453119046120266,-0.8886419949516191,-0.2552923004751319,-0.0008866504612438,0.0013820194197471,-0.0027194754264256,6.527753032192956e-07,-7.150386924568502e-07,-2.0115541438177977e-06,11734,0.367566,27.440787,19.400259
-0.3878669465852201,-0.9954938228983036,-0.4363968315216077,-0.0007423975623704,0.0021537439968161,-0.0039783833518937,3.522915435493879e-07,-8.051743221283947e-07,-2.436555637958425e-06,11735,0.029918,27.262641,18.819087
-0.5207543815633768,-1.126230849153102,-0.6010536889659165,-0.0005668541684161,0.0029311032809437,-0.0052684163873314,1.0638673791229065e-07,-8.674749515615112e-07,-2.743531315710965e-06,11736,-0.259528,27.054908,17.73625
-0.7187102315040469,-1.1131445188964342,-0.6680456501237848,-0.000376354130741,0.003726016865865,-0.006541052233485,-4.2687879192629264e-08,-8.767990214259692e-07,-2.8329681658021324e-06,11737,-0.393111,26.674271,16.837284
-0.8811748692517136,-0.8963183672475957,-0.7422671802924048,-0.0001829260714656,0.0045372160827228,-0.0077600639364634,-1.166683365461985e-07,-8.263592209931073e-07,-2.694321584739068e-06,11738,-0.283401,26.071197,16.628311
-0.925990069296938,-0.6019138752745827,-0.8699085438000373,2.883879108405774e-06,0.0053502197782306,-0.0089004841282002,-1.5079042047857494e-07,-7.248677241389522e-07,-2.374083097317675e-06,11739,0.048382,25.326939,16.411963
-0.8757968672331625,-0.4327549648104579,-0.9606403759997234,0.000167772233263,0.0061444229409441,-0.0099294648746186,-2.678465284614236e-07,-5.738384550139116e-07,-1.936011157638111e-06,11740,0.316714,24.49957,15.553895
-0.7973101943026878,-0.3888725230932259,-0.9810200086371624,0.0002969976187331,0.0068861035212625,-0.0108118736566942,-5.793179620677674e-07,-3.883174015090926e-07,-1.48116897487928e-06,11741,0.583379,23.582829,14.079087
-0.6839252798825337,-0.2139332826186054,-0.9765447007281752,0.0003852348496375,0.0075403768848841,-0.0115153393561176,-1.0011940775833624e-06,-2.1516348397826187e-07,-1.119738447157248e-06,11742,0.77258,22.682975,12.491079
-0.5064576408753534,0.1363350353439257,-0.9689121376270232,0.0004378539262286,0.008068872963289,-0.012008407759879,-1.320595358100135e-06,-8.609778779941789e-08,-8.528953736892917e-07,11743,0.813082,21.849627,11.095599
-0.3225912209210099,0.3510746214408572,-0.9548802893899792,0.0004679660670817,0.0084143293691771,-0.0122616674693132,-1.4099520538332749e-06,5.654331263652581e-09,-5.993924726125755e-07,11744,0.818374,21.005842,9.953646
-0.1885730772579349,0.3178887742256752,-0.9280295617821254,0.0005019915260978,0.0084984148735893,-0.0122488540674977,-1.3292699850770827e-06,6.894446523643084e-08,-3.581170738343508e-07,11745,0.972731,20.089161,9.013378
-0.0763373529474573,0.2412169538042651,-0.8834544401271119,0.0005487929870833,0.0082807131117665,-0.0119492063122343,-1.2540261015901167e-06,1.1706532084365285e-07,-1.660147091913521e-07,11746,1.246214,19.077869,8.206163
0.0609511000751935,0.2137107661966766,-0.8254496654574288,0.0005986437642081,0.0077603885657721,-0.0113494732282493,-1.2945782299303136e-06,1.829267618843719e-07,3.249556248870344e-08,11747,1.459518,18.132782,7.257341
0.2688616777229257,0.1996367722232851,-0.7620687207639256,0.0006426186991679,0.006947513263039,-0.0104457322573426,-1.412805614494556e-06,2.894425481175064e-07,3.250153864364455e-07,11748,1.609156,17.291503,6.241465
0.5160636496431473,0.1406813851390781,-0.6923713419447227,0.0006634925081874,0.0058833075762498,-0.0092472342213636,-1.5202766188892003e-06,4.149867654768202e-07,6.783846979041956e-07,11749,1.883937,16.480749,5.266818
0.6630275267016805,-0.0930619727157533,-0.6146461803341398,0.0006549107112298,0.0046034568776147,-0.0077792282836666,-1.5848400432261709e-06,5.128482029718108e-07,9.606843273805458e-07,11750,2.134019,15.725553,4.4218
0.6564523064299493,-0.4287067402550206,-0.5377150261075375,0.000623851380295,0.00314068586714,-0.0060891692978231,-1.5874707733402974e-06,5.729941821275836e-07,1.151917591551036e-06,11751,2.366489,15.150636,3.86973
0.5928456053171225,-0.6143064331938837,-0.4395370018495144,0.0005746984451218,0.0015660849564466,-0.0042566106145682,-1.4462567072091858e-06,6.096446143652956e-07,1.3301249429098797e-06,11752,2.479798,14.756838,3.776519
0.5560735726937907,-0.670539045651763,-0.2794478998449131,0.0005152232476292,-1.1001544181135116e-05,-0.0024045177268702,-1.1464118741141036e-06,6.093951515067012e-07,1.456956548581503e-06,11753,2.39126,14.5797,3.915485
0.5352803662493342,-0.7435167856919707,-0.0950071727567621,0.0004488782402799,-0.0015302404726655,-0.0006000398638855,-8.248073189352947e-07,5.696095154561257e-07,1.4689254222265522e-06,11754,2.225936,14.639572,4.179332
0.499213909736523,-0.7776332533551886,0.0517507413846955,0.0003729058510194,-0.0029778652597411,0.0011467247327089,-5.276486741606629e-07,5.381596165769957e-07,1.5024183001844487e-06,11755,2.088204,14.788944,4.741273
0.4736822176299649,-0.7234442508926591,0.2380230961321739,0.0002865924922,-0.004342476379658,0.0028243523177897,-1.1217297715182118e-07,5.552191769000268e-07,1.7445642439324109e-06,11756,2.184267,14.876637,5.579896
0.4552500762522187,-0.659945169921603,0.5632290761509012,0.0001886730867489,-0.0056394405960296,0.0044487349025601,4.592717924447832e-07,5.882729119179642e-07,2.1034458570624994e-06,11757,2.297882,14.964221,6.438034
0.3289853502091419,-0.6230203634003967,0.8963209749200739,7.948509201845927e-05,-0.0068557539266119,0.0060016489284781,9.922043387540388e-07,5.782848751157311e-07,2.3071717456078965e-06,11758,2.586546,15.159851,7.931122
0.0957277934531055,-0.5989147131719113,1.0302937631461755,-3.791086809031653e-05,-0.0079456167625505,0.0074236935317019,1.3553148501446356e-06,5.356198426865318e-07,2.3313207703806564e-06,11759,2.554553,15.651635,9.811645
-0.0498380918107291,-0.54643835226968,0.9847583383292212,-0.0001605889976968,-0.0088761196568222,0.0086651948602737,1.6576097561930162e-06,5.071316421621563e-07,2.366731762231857e-06,11760,2.1609,16.421115,11.007231
-0.0542058807944535,-0.3836874789288741,0.914541847621519,-0.000284647426794,-0.0096126087985696,0.0096677795314016,1.997692775298534e-06,4.770169938832544e-07,2.4069271991919324e-06,11761,1.682861,17.316599,11.806297
-0.0124436859488296,-0.1640683222403826,0.8787985480857317,-0.0004074561801077,-0.0101299858347629,0.0104010759882098,2.311616298164604e-06,3.9863844418530476e-07,2.285150281807734e-06,11762,1.769236,18.01826,13.021016
0.0241130331684629,-0.0206237921370516,0.8293726909948841,-0.0005280372785774,-0.0104192158716711,0.0108720969405007,2.5793396135868367e-06,2.751625720435935e-07,2.0068106399631376e-06,11763,1.944338,18.552213,14.509031
-0.0535698403085078,0.1108182440208589,0.7147151350839684,-0.0006450420068441,-0.0104730630453466,0.0110977147408556,2.8716795695927908e-06,1.3358484364027652e-07,1.6846834365764684e-06,11764,1.790448,19.146355,16.052687
-0.2751265425317422,0.3243838885954984,0.5704324732827138,-0.000757487666838,-0.0102927581533734,0.0111218495887551,3.125542283766697e-06,-2.6340165982298748e-08,1.2869492014492773e-06,11765,1.532964,19.838569,17.403495
-0.422043627075363,0.4956522093900524,0.483056164957315,-0.0008634353579665,-0.0098941265719169,0.0109743729369837,3.160772118729464e-06,-2.0411736469772454e-07,7.353521386695203e-07,11766,1.275901,20.548957,18.604606
-0.3579057413640668,0.505050897624595,0.4389490426798035,-0.0009596564058642,-0.0093106682675486,0.0106709004336262,2.966775315910587e-06,-3.561303817915323e-07,1.61142521470082e-07,11767,1.014069,21.284491,19.617007
-0.1800395975751221,0.439662152420884,0.3719400618915849,-0.0010427252488305,-0.0086023373095594,0.0102516459347013,2.7365163815633404e-06,-4.3108802656142674e-07,-1.8934802680201042e-07,11768,0.805117,22.004686,20.422144
-0.0012990726958171,0.424698393668016,0.30679747639176,-0.0011084394312163,-0.0078649759713226,0.0097754024774516,2.605694306440935e-06,-4.422639080204377e-07,-2.92595672874185e-07,11769,0.697423,22.657577,21.197962
0.0982709144117341,0.466410031067875,0.2693170991142737,-0.0011561332317852,-0.007143542955357,0.0092720986755805,2.5529496147657893e-06,-4.57128116512173e-07,-3.6594998157519467e-07,11770,0.677608,23.254857,22.023248
0.0924367692444332,0.5093151446609546,0.2296305197754279,-0.0011893539573885,-0.0064302455393581,0.0087448989743149,2.529747832068431e-06,-5.146520264942056e-07,-5.552074045963176e-07,11771,0.738512,23.802772,22.878616
0.0615938794859917,0.5098695076521668,0.1953965625593059,-0.0012139060018117,-0.0057137599651471,0.0081886349214754,2.52661992138157e-06,-5.966136550992915e-07,-8.095933264783587e-07,11772,0.827136,24.294396,23.676372
0.0528123251944859,0.4714535695293753,0.1852112599061189,-0.0012399351685705,-0.00495272379598,0.0075752123352863,2.507650609198178e-06,-6.660499089717192e-07,-1.0304290428810748e-06,11773,0.967406,24.743695,24.416216
0.0325082265007929,0.4300841281540322,0.1784056407177345,-0.0012736705991019,-0.0041317537747978,0.0068906701299111,2.405203112675119e-06,-6.949794155604405e-07,-1.1635878441302795e-06,11774,1.076253,25.190956,25.135975
0.004219875203232,0.3940131052799517,0.1633156012189335,-0.0013173364377698,-0.0032653708431371,0.0061349043187353,2.203863975744085e-06,-6.666870716654075e-07,-1.166070558859828e-06,11775,1.21115,25.648939,25.790955
0.0298085685194592,0.3570269636142088,0.1475330500232692,-0.0013752373212759,-0.0023482357523292,0.0052893511448354,1.920906874750129e-06,-5.787921988483905e-07,-1.019946526481423e-06,11776,1.27368,26.115931,26.239939
0.1467234388885471,0.312012896608135,0.1250939221094167,-0.0014518527052001,-0.0013681793991315,0.0043229891211871,1.535357110768332e-06,-4.612313836210969e-07,-8.238874977012972e-07,11777,1.281367,26.579592,26.441272
0.2687534012631776,0.205985171330323,0.0978501118012759,-0.0015421871904851,-0.0003247310844719,0.0032244256532825,1.0649674285454028e-06,-3.839482887462535e-07,-7.889450780545375e-07,11778,1.238127,26.989179,26.489293
0.2685472244947921,-0.0371047122815441,0.1026106737755186,-0.0016305124999633,0.0007752869793576,0.0019998436798308,6.580943966846759e-07,-4.097353605233021e-07,-1.0496896865778475e-06,11779,1.158769,27.301013,26.51908
0.1336152172046336,-0.367571644205633,0.1470981244128402,-0.0016915410589957,0.0019170112680976,0.0006618057614097,4.63303605385409e-07,-5.353571021725495e-07,-1.533615329632928e-06,11780,1.04098,27.451706,26.553586
-0.0854832831796713,-0.6139536196467914,0.1952576536272082,-0.0016848051196324,0.00307236240741,-0.0007609868353299,4.216930006588392e-07,-7.086030836560433e-07,-2.103602708330661e-06,11781,0.770546,27.420558,26.570813
-0.3082166422126974,-0.7757097465703164,0.2205310201678668,-0.0015897497433127,0.004220807925033,-0.0022505379520541,2.886747638409293e-07,-8.815726572525056e-07,-2.7148602868498898e-06,11782,0.376237,27.237096,26.520486
-0.4370441846729619,-1.023741924090892,0.1313967825323225,-0.001406678607171,0.0053478135847194,-0.003799324694527,-1.4120322399888278e-07,-1.0172486550956954e-06,-3.338113138658312e-06,11783,0.048459,27.026441,26.088049
-0.4511708005322777,-1.2948882263077386,-0.1665089363384772,-0.0011352088206322,0.0064289730766415,-0.0053877919591646,-8.642352347438013e-07,-1.0822456939746986e-06,-3.864193754111348e-06,11784,-0.430893,26.889041,24.740783
-0.3745522722503152,-1.34683768012304,-0.529646583730559,-0.0007845692526097,0.0074328186852295,-0.0069890026124008,-1.6830906943801598e-06,-1.0593779698679267e-06,-4.150772622097716e-06,11785,-0.775335,26.679508,22.787909
-0.3298163745749789,-1.25388042348017,-0.7198877194960309,-0.0003709785077042,0.0083369225848329,-0.0085716663693342,-2.3197703451077524e-06,-9.578802332777632e-07,-4.104814143265559e-06,11786,-0.89427,26.217598,21.197136
-0.5349382222411793,-1.1821797998302594,-0.725854999918051,8.112174490835112e-05,0.0091266061581405,-0.0100953324707512,-2.5663481148940383e-06,-8.068236359789347e-07,-3.729689458295711e-06,11787,-0.760567,25.497019,20.266279
-0.9136559923310524,-0.919854443899857,-0.6803527107700338,0.0005256489717385,0.0097885328857525,-0.0115084400139817,-2.4661375403173597e-06,-6.295083339290066e-07,-3.1202541280858587e-06,11788,-0.411976,24.571401,19.396825
-1.113707697950736,-0.432728304828435,-0.675351795176019,0.0008898832783855,0.0103150544795164,-0.0127443307560346,-2.3197546740352708e-06,-4.4441123415801444e-07,-2.464987172217756e-06,11789,-0.072049,23.516913,18.205852
-1.0472880370452504,-0.1368821142943815,-0.7486231641180944,0.0011459266119307,0.0106890158817186,-0.0137554547165231,-2.4302668187345325e-06,-2.810535812880454e-07,-1.9892017973362018e-06,11790,0.185547,22.395985,16.532437
-0.8464777475054652,-0.0459758152993751,-0.8403813235580299,0.0013127326311153,0.0108824509836848,-0.0145139998480481,-2.840209955745724e-06,-1.488433817962749e-07,-1.74410218285132e-06,11791,0.420838,21.2422,14.502626
-0.4898692662965243,0.250536851825021,-0.8481980947474347,0.0014192922230671,0.0108664908654583,-0.0149913207565007,-3.323364860081705e-06,-3.6629324346728855e-08,-1.5969857688323362e-06,11792,0.73034,20.107276,12.421775
-0.0264307875394712,0.671460812952076,-0.786360685848113,0.0015283817262137,0.0106062293777433,-0.0151678418841256,-3.607685868651805e-06,4.8710981790178656e-08,-1.448581224050272e-06,11793,1.137785,18.989721,10.806292
0.2506732381095106,0.814556531366529,-0.7256737044353704,0.0016599475048576,0.0100903136297456,-0.015024131798281,-3.5618525668845733e-06,1.0452813328973061e-07,-1.247749849417812e-06,11794,1.515785,17.917646,9.694428
0.2747513240213481,0.7190314483376937,-0.6689526943784869,0.0017858137075751,0.0093355175671089,-0.0145407780494651,-3.232111493017486e-06,1.512204830292899e-07,-9.497177052372186e-07,11795,1.786597,16.892024,8.835807
0.346553111193522,0.6548037994666385,-0.606383225443871,0.0018848455654738,0.0083722553528714,-0.013712768234088,-2.768335462846702e-06,2.12396680319676e-07,-5.448828228327749e-07,11796,2.086622,15.859781,8.025915
0.5849645865101952,0.6367798638336575,-0.5341951327998323,0.0019203360695939,0.0072583986045054,-0.0125503368078611,-2.309766302577426e-06,3.087422772399212e-07,-2.8573638654135645e-08,11797,2.503702,14.810856,7.224199
0.7608627973370303,0.5207421829699058,-0.4090743589610172,0.0018801194102772,0.0060259192287354,-0.0110685278530194,-1.9523490889112763e-06,4.4094741573911437e-07,5.577337045468028e-07,11798,2.981769,13.802054,6.374823
0.7401724152968711,0.2600075828337357,-0.2466766162400583,0.0017841115165781,0.0046798694016189,-0.0092929545398927,-1.7336762666941714e-06,5.79620903094435e-07,1.1014286949198338e-06,11799,3.458932,12.945002,5.64758
0.655063560974978,-0.0526157121441293,-0.1295931526398527,0.0016492432428111,0.0032376141547559,-0.0072718855532331,-1.5977869172090308e-06,6.860912371239767e-07,1.5024594212726634e-06,11800,3.838474,12.279056,5.150155
0.6240536386476856,-0.311873564711692,-0.0200005816568494,0.001503682216713,0.0017160407098698,-0.0050813237835944,-1.4725121035311746e-06,7.399347290486602e-07,1.729127167927675e-06,11801,4.051022,11.818368,4.893156
0.6203332447117775,-0.4672729635999457,0.175358176768711,0.0013597451291442,0.0001373783289746,-0.0027758260865404,-1.3610679660731244e-06,7.630178191286125e-07,1.8527638939222597e-06,11802,4.224721,11.601687,4.951907
0.616052599304082,-0.5071623854491646,0.4099354023469875,0.0012091960781976,-0.0014657607067624,-0.0003911278554304,-1.231973293896372e-06,8.056344368411005e-07,2.0482859975329517e-06,11803,4.254252,11.635425,5.263361
0.5844120939405514,-0.4763029426496578,0.6414598507343923,0.0010471181713643,-0.0030609643592762,0.0020233245694939,-9.031487079171534e-07,9.014939498838152e-07,2.5006860668172137e-06,11804,4.421219,11.878478,5.617891
0.4363922560969725,-0.4234705390242667,0.9194321396550124,0.0008627608570988,-0.0046121059325264,0.004413991887776,-2.436610633044797e-07,1.0365606108144715e-06,3.219992467415185e-06,11805,4.582487,12.136829,6.420749
0.167452250316033,-0.3799526293931741,1.1625606349242077,0.00065111572672,-0.006070961730636,0.0067225596375947,6.247605358764006e-07,1.147007923338058e-06,3.9499541149710535e-06,11806,4.823723,12.362934,8.062177
-0.0592809151677165,-0.4031202380809978,1.2277051698624808,0.0004154380852161,-0.0073752705154955,0.0088808936107677,1.4874984224591102e-06,1.171490049664566e-06,4.403918423409366e-06,11807,4.8115,12.706279,10.341459
-0.1138679196926345,-0.4467399203469355,1.1589265647506504,0.000154143295743,-0.0084453858404923,0.0108151093859053,2.2198493207417032e-06,1.1153567735002275e-06,4.546229729489894e-06,11808,4.657687,13.425037,12.349014
-0.0581817108040093,-0.3776444217471786,1.0747224988554005,-0.0001358570510327,-0.0091768812846549,0.0124417342596141,2.7507028395570317e-06,1.0343768261909392e-06,4.522718548969633e-06,11809,4.245883,14.444192,13.728833
0.026514712988288,-0.1961888340999692,1.0129425340768523,-0.000447340957375,-0.0095277058739209,0.0137076496179058,3.023162049218608e-06,9.67943828574153e-07,4.4308439773208186e-06,11810,4.039654,15.539811,15.011022
0.0886173926323547,0.0625345458878013,0.9390517896552788,-0.0007624438909622,-0.0095252905674597,0.0145948659209419,3.0496727980157324e-06,9.095657011171988e-07,4.253025545422979e-06,11811,4.153115,16.569839,16.438819
-0.0035867054419869,0.4226044450894185,0.7955118488691371,-0.0010538750032091,-0.009225266258067,0.0151018760392611,2.900945368236901e-06,8.228835337528907e-07,3.905297154018052e-06,11812,4.043559,17.5931,18.033322
-0.2254772243341929,0.744316028051426,0.6086648652860758,-0.0012791554699615,-0.0087463721120029,0.015261243173403,2.597242488524068e-06,6.69783081567366e-07,3.276246301418429e-06,11813,3.578369,18.719707,19.476037
-0.3623723283437894,0.827141698465865,0.4621773479958474,-0.0014178673975609,-0.0081524979712455,0.0150964773860687,2.1177192270430763e-06,4.4082341331607563e-07,2.3269335244578244e-06,11814,2.978392,19.979821,20.545235
-0.3342666065771016,0.741200134395773,0.3734036081304346,-0.0014730146820501,-0.0074506070804332,0.0146254638416785,1.5042719325175297e-06,1.805956081172052e-07,1.220746646885648e-06,11815,2.440575,21.265897,21.369207
-0.1968675025684671,0.6664713254198003,0.3106478115495829,-0.0014489646568435,-0.0066815059558763,0.0139036731743785,8.711227526361253e-07,-3.379156417936448e-08,2.573215693338481e-07,11816,2.043919,22.461619,22.195515
-0.0192282405366667,0.6275627590794026,0.2524998704910584,-0.0013630341707227,-0.0058932694321951,0.0130223820744609,3.661947691446935e-07,-1.535007618329998e-07,-3.441143138357678e-07,11817,1.814887,23.516024,23.108033
0.0956703863028267,0.590112807297623,0.1875640339996992,-0.0012319578198561,-0.0051169555984715,0.0120276831057807,6.871770720059919e-08,-1.916150872917985e-07,-5.95611739892726e-07,11818,1.738667,24.428693,24.091484
0.0972630912665978,0.5535319202892119,0.1270740441749026,-0.0010722287873389,-0.0043741305532052,0.0109233176009497,-1.0756122845810977e-07,-2.042725004007261e-07,-7.14710907243184e-07,11819,1.791551,25.192342,25.07449
0.0691113880441589,0.5188565358604706,0.0921993125953572,-0.000919090715455,-0.0036687358191215,0.0097108348370399,-2.4951499155420864e-07,-2.2679587650543522e-07,-8.481776258618529e-07,11820,1.850497,25.86442,25.894569
0.072471240131518,0.4826277902017205,0.068334239115218,-0.0008273150063441,-0.0029793662140545,0.0083671926859878,-3.0274574080603844e-07,-2.423805318744319e-07,-9.185130082579776e-07,11821,1.881362,26.446083,26.489389
0.0675031136093443,0.4384010020469249,0.0441111084833689,-0.0008182593533673,-0.002292763091831,0.0068963970635375,-2.5121581658799265e-07,-2.341672221877664e-07,-8.684000192919818e-07,11822,1.926953,26.916284,26.974069
0.0494360065338476,0.3960874680514157,0.0317252831111305,-0.0008792310241773,-0.0015988420607436,0.0053336789326228,-1.9137188377340442e-07,-2.1758838758791017e-07,-7.890073174178503e-07,11823,1.975413,27.300446,27.463654
0.044073062421105,0.3650633774598857,0.0018219924872153,-0.0009885764209766,-0.0008631566968959,0.0037033430473491,-1.7698425976702225e-07,-2.184014041985774e-07,-7.834687469031225e-07,11824,2.025378,27.612855,27.892399
0.0453251258996844,0.2888043830828907,-0.0771942149669741,-0.0010981210951814,-2.8273988591951457e-05,0.0020327573103665,-1.740824873852073e-07,-2.528381831039192e-07,-8.896716996498348e-07,11825,2.006661,27.863142,28.099421
0.0570798699731987,0.0777972393494738,-0.1424356769260167,-0.001181164703105,0.0009283749988832,0.0003455236810066,-1.0575484757846209e-07,-3.205905946679037e-07,-1.0772575108542057e-06,11826,1.886134,27.984536,28.05241
0.0563321876486401,-0.2568359089237128,-0.1248817584190157,-0.0012337392919471,0.0019950721833868,-0.0013432025418253,9.895738379591173e-08,-4.238684414556543e-07,-1.323469031601386e-06,11827,1.699214,27.934494,27.854186
-0.0332618348729406,-0.5167582724058752,-0.0800710430366201,-0.0012351586865126,0.0031532749551094,-0.0030132544838041,4.069794064987017e-07,-5.699648644045298e-07,-1.660741848683195e-06,11828,1.430663,27.668244,27.641199
-0.2417898100500129,-0.6081624713324216,-0.0672355883614051,-0.0011582886131056,0.0043596764174808,-0.0046423771646167,6.384157381857109e-07,-7.399077757850228e-07,-2.1014793477134743e-06,11829,1.127421,27.194892,27.681912
-0.519190828468028,-0.8537900250424195,-0.0713960032134435,-0.0009969327967366,0.0055768558818954,-0.0062104444731066,5.952341898427587e-07,-8.947037886817143e-07,-2.607845409259693e-06,11830,0.89017,26.674967,27.576022
-0.7637408708137843,-1.382642370391335,-0.1399146169495206,-0.0007645656258195,0.0067719247637393,-0.0076978983657217,1.980639007362679e-07,-1.0066350038326068e-06,-3.1285317432312043e-06,11831,0.543224,26.277806,26.680234
-0.8439489808376557,-1.6960284958133842,-0.3118090558267589,-0.0004909296982104,0.007882254208109,-0.0090860531912497,-5.180284603263354e-07,-1.067055098874722e-06,-3.620876819754567e-06,11832,0.222305,25.889805,24.926402
-0.7592274048469623,-1.6312930238401806,-0.4824596996057567,-0.0002331693449606,0.0088164654838725,-0.0103577533242791,-1.3426640459389316e-06,-1.063352869332672e-06,-3.954644656920078e-06,11833,0.09016,25.326471,22.872715
-0.6980328178799118,-1.5167345084547446,-0.5698813945382522,-1.343495250878137e-05,0.0095268044016992,-0.0114917659543317,-1.8778554618436388e-06,-9.708784439676754e-07,-3.883928620983104e-06,11834,0.101182,24.541624,21.241915
-0.7537614694944094,-1.1683723870934446,-0.62403442007422,0.0001826224341631,0.010008304536518,-0.0124623532876464,-1.9157264502996868e-06,-8.113014785818752e-07,-3.3903749011351467e-06,11835,0.348646,23.524852,20.054899
-0.8099583121751504,-0.500647555829744,-0.6652685983163538,0.0003669364822424,0.010264557417541,-0.0132417996975841,-1.7241148826408178e-06,-6.625623805546502e-07,-2.834111746496578e-06,11836,0.652488,22.34851,19.001567
-0.765026255903559,-0.0540287593677915,-0.6768267392097421,0.0005669331834005,0.0103300628537683,-0.0137981558797846,-1.6797451222180138e-06,-5.570721211342233e-07,-2.4781618209785207e-06,11837,0.856621,21.17566,17.781744
-0.6480246661824277,0.2205733310888332,-0.7370090087634537,0.0007878070752321,0.0102185624971619,-0.0141072449948753,-1.825075732228364e-06,-4.568834573754273e-07,-2.222768921086454e-06,11838,0.952634,20.10617,16.333435
-0.4917809732512912,0.724038659736691,-0.8668399300978369,0.0010072517148195,0.0099219941662179,-0.014153613788605,-1.999803134189082e-06,-3.482960451119862e-07,-1.9549322263766573e-06,11839,1.061143,19.15532,14.696519
-0.2429157740336215,1.0865357110596117,-0.9381522906767524,0.0012062296612089,0.009456519855062,-0.0139235032542233,-2.0885841637676677e-06,-2.410353561152767e-07,-1.6508026430800487e-06,11840,1.338381,18.253019,13.226438
0.037204302182978,0.9988510859772224,-0.8969219316019519,0.0013565723990811,0.0088531209982205,-0.0134091207973764,-1.9791895568483097e-06,-8.869378990650235e-08,-1.1141209406497482e-06,11841,1.738886,17.30978,12.16643
0.1853027942127935,0.8607540010003005,-0.8147476140794077,0.0014439087037602,0.0081253581817843,-0.0126032484937063,-1.5931303202379582e-06,1.4921841076837716e-07,-1.847270480173216e-07,11842,2.194014,16.368859,11.391961
0.2722667414673739,0.8458472512997071,-0.7544496103950155,0.0014718892595961,0.0072738408767135,-0.011499883213468,-1.0296740676708113e-06,4.0507230812901013e-07,8.81339179333716e-07,11843,2.623259,15.419576,10.761232
0.4498037789440451,0.7523429552370925,-0.7128978605990607,0.0014421027386716,0.0062963636972495,-0.010102091294247,-5.272271723281015e-07,5.901126708388479e-07,1.7002157532406206e-06,11844,3.134705,14.484623,10.183196
0.600685200724684,0.5668777850113245,-0.6238549846035593,0.0013621036630396,0.0051800710460213,-0.0084229271292891,-2.784373003091889e-07,7.181298023803316e-07,2.2282455247877013e-06,11845,3.618358,13.634319,9.559289
0.586685199781849,0.3174641973653512,-0.4796872580181675,0.0012370260004423,0.0039339494388004,-0.0064919118011008,-2.8861168285577565e-07,8.381989391235833e-07,2.6139284180360087e-06,11846,4.023069,12.999985,9.002164
0.548757589819592,-0.001884938300941,-0.3308377837498011,0.0010681632080462,0.0025918317093687,-0.0043613029545987,-3.995568721855504e-07,9.339374141320984e-07,2.873483890206951e-06,11847,4.289558,12.616668,8.562519
0.59620840217062,-0.2997930810717276,-0.1429023808424017,0.0008645291091329,0.0011933069423732,-0.0021110419047532,-4.450768775275215e-07,9.855574833132366e-07,3.0179271360598155e-06,11848,4.437403,12.500589,8.408378
0.6157409619432501,-0.4770150185449354,0.0527187114507871,0.0006416288163267,-0.0002043006000856,0.0001399082348035,-3.48372545208194e-07,1.0403961435190714e-06,3.230373260124343e-06,11849,4.393628,12.6486,8.466595
0.5502615672121607,-0.5059588946512112,0.2347650493540813,0.0004073894525504,-0.0015659244659572,0.0023111575007526,-8.860691633447902e-08,1.126742110149175e-06,3.610963165217724e-06,11850,4.306614,12.931504,8.832064
0.4523038531078821,-0.4436299966807088,0.6367886813363501,0.0001632503254752,-0.002881594082319,0.0043600799716726,3.028461101477116e-07,1.1754306814925188e-06,3.930634555981728e-06,11851,4.250793,13.261813,9.631
0.3781214075014429,-0.3783285419820176,1.223054666652248,-8.957770090091714e-05,-0.0041376835099548,0.0062313293719257,6.799618359756651e-07,1.1204800322611327e-06,3.916697039355693e-06,11852,4.244379,13.676253,10.813922
0.3361761473357245,-0.3994996329711778,1.5048803918128528,-0.0003536750260127,-0.0053287784919627,0.0078756397528715,8.493349230622559e-07,9.90577903751694e-07,3.571927334545835e-06,11853,3.899658,14.314979,11.970198
0.2826913428141472,-0.5041476100401511,1.3792519189910035,-0.000624015668067,-0.0064355354881666,0.0092615384266261,7.55037344036528e-07,8.393242455919582e-07,3.040085960168751e-06,11854,3.40979,15.100914,12.987915
0.2620693755015567,-0.5302015665036937,1.2251093820278838,-0.0008866354778305,-0.0074205696229876,0.0103751471347791,5.538297134752177e-07,6.921937116413457e-07,2.472392284138495e-06,11855,2.786515,16.021105,13.675826
0.3033447793852079,-0.3417519966309386,1.1813504818025211,-0.0011259695623263,-0.0082471842998893,0.0112336238251323,4.991139271200585e-07,5.644422879624142e-07,2.030650815784234e-06,11856,2.533199,16.859563,14.464191
0.2369125933812508,0.0173805791500524,1.0956023020536385,-0.0013206191655281,-0.0088713170122844,0.0118958772026184,7.346300560153316e-07,4.655228235192016e-07,1.809035579299188e-06,11857,2.404404,17.561365,15.466377
-0.0157249648704075,0.4162819222626553,0.8466522284117233,-0.0014592404133325,-0.0092660409405819,0.0123726969863192,1.1804651614940507e-06,3.967254775488687e-07,1.7767345667174129e-06,11858,2.30389,18.223732,16.955955
-0.2253192088391155,0.753249814086882,0.4900370150188129,-0.0015421528238008,-0.0094255545744204,0.0126274072099455,1.6260071128230189e-06,3.2893971310869095e-07,1.7484590348865226e-06,11859,2.161126,19.005159,18.743992
-0.2287939753597931,0.9500034069981044,0.2482556066832488,-0.0015709642358557,-0.0093488386688851,0.0126298501601828,1.8966138838970583e-06,2.095930482024012e-07,1.4797599231039328e-06,11860,1.882041,19.953866,20.232858
-0.1677514318789371,0.982972278480968,0.1550414899683593,-0.0015541628953101,-0.0090496567290762,0.0123325925346621,1.8984230631778047e-06,1.9738011985199583e-08,8.692182848856086e-07,11861,1.517722,21.002236,21.238503
-0.1325163553778509,0.9180617843199432,0.0464363372870985,-0.0014996329355308,-0.0085476859995854,0.0117337729596888,1.6294979012657027e-06,-2.048395552982264e-07,3.1172330866151654e-08,11862,1.134967,21.980152,21.949366
-0.0282726259477872,0.8416723488043041,-0.0486289445176398,-0.0014148872313507,-0.0078710745397392,0.0108881879085553,1.2413026200404414e-06,-4.058686855194896e-07,-7.815223898608822e-07,11863,0.875738,22.812351,22.667953
0.137384272216294,0.7838486248350022,-0.0506870258033278,-0.0013169575081098,-0.0070745983826552,0.0098655042904268,9.413363209091054e-07,-5.609407584983801e-07,-1.4059946816821589e-06,11864,0.74462,23.509125,23.434362
0.2688368516524144,0.7319828014451155,-0.0366391325005288,-0.0012326317082566,-0.0062446429517934,0.0087768090510079,7.869410479467035e-07,-6.856307250910102e-07,-1.8660382360250768e-06,11865,0.70291,24.081895,24.187016
0.3089508427438592,0.6866667328646855,-0.0521405631200642,-0.0011743015073354,-0.0054217710282097,0.0076759992792889,7.0912330654894e-07,-7.697367068060441e-07,-2.1622446445483166e-06,11866,0.698941,24.561808,24.875508
0.231095126587957,0.6132489641805213,-0.0606163112877084,-0.0011401437360562,-0.004599970917272,0.0065522961755323,6.919428572207796e-07,-7.891404658386436e-07,-2.2314806179213982e-06,11867,0.751024,24.946629,25.469168
0.1143314962780044,0.4312289754216891,-0.020696079668523,-0.0011259871212517,-0.0037679833019003,0.0053982469251525,7.793199366542168e-07,-7.610663939767295e-07,-2.1118791381689377e-06,11868,0.823138,25.238295,25.981782
0.0751791011111217,0.1693422488404392,0.0675367010605793,-0.0011179322009119,-0.0028855629145575,0.0041788453589374,9.309722149967156e-07,-7.1662638403975e-07,-1.915286183327407e-06,11869,0.91548,25.480317,26.460979
0.1337937107660247,-0.0314848791363769,0.1170324918622784,-0.0011092396631602,-0.0019355538446475,0.0028869479287974,1.0360295351211378e-06,-6.671382831095472e-07,-1.7210631064704465e-06,11870,0.97035,25.686866,26.817907
0.2468528321825476,-0.128623777571367,0.0876245810840777,-0.0011009005629448,-0.0009266012998155,0.0015502381280498,1.0908909268886918e-06,-6.323863012487529e-07,-1.590845489141966e-06,11871,0.999396,25.814766,27.041333
0.3702716214385482,-0.1573601172221317,0.0616750296210331,-0.0010867474627004,0.0001529979251387,0.000179393138353,1.2092308723061793e-06,-6.484850329026224e-07,-1.5870854689834356e-06,11872,1.003321,25.836695,27.127568
0.4514039944738817,-0.164518592352283,0.0517006212768702,-0.0010568155993863,0.0013240708906898,-0.0012169354218152,1.470366325397422e-06,-7.323789148077009e-07,-1.730374295114548e-06,11873,0.970432,25.698285,27.099798
0.3736228834720106,-0.2794646921022299,-0.008196310920466,-0.0010047740535587,0.0025872499118482,-0.0026292003096094,1.8081143748339627e-06,-8.654807337999587e-07,-1.9979160272834267e-06,11874,0.8947,25.39783,27.240451
0.0678031854642064,-0.4813152868380931,-0.1344381417804281,-0.0009262784391943,0.0039257292507293,-0.0040528326523712,2.0007670904023968e-06,-1.0055952153693393e-06,-2.359706766464892e-06,11875,0.759335,25.039407,27.491826
-0.3060022711768971,-0.6184864070733408,-0.3370734609997446,-0.0008172608755771,0.0053099032724582,-0.0054791146176076,1.8427537247313344e-06,-1.1035125706944065e-06,-2.7506807095272712e-06,11876,0.644041,24.776222,27.441543
-0.4664295148984161,-0.8334525098156337,-0.5761452145515225,-0.0006753623818254,0.0066872068222788,-0.0068960926116968,1.2829367928568722e-06,-1.1258505104727271e-06,-3.082118442684393e-06,11877,0.420129,24.58019,26.466666
-0.3958271819296975,-1.304868813841842,-0.7243937522161357,-0.0005000601649256,0.0080064969142745,-0.0082804737446255,3.7967361575943634e-07,-1.0694407043467725e-06,-3.310840311013567e-06,11878,0.171005,24.311367,24.647364
-0.4428210404750177,-1.6333354668148332,-0.7476039183179679,-0.0002932969128822,0.0092137810670352,-0.0095934835274076,-6.605868511136192e-07,-9.42789513601032e-07,-3.3690177206271662e-06,11879,-0.040554,23.847467,22.726541
-0.765480557291636,-1.2935784115911233,-0.7507857213565003,-6.123361736000519e-05,0.0102261476634077,-0.0107823111139112,-1.4909009708568102e-06,-7.629073027890372e-07,-3.159750930171611e-06,11880,-0.071868,23.13732,21.241812
-1.0792683045383713,-0.6034761748057098,-0.7729275417593814,0.0001843986178483,0.0109298170736064,-0.0117724848068146,-1.9158351511246456e-06,-5.812734430798491e-07,-2.765438333631993e-06,11881,0.123471,22.226119,19.874485
-1.1594371784003092,-0.2114076097529779,-0.764684264534078,0.0004374348664478,0.0112654743033435,-0.0125218196680618,-2.1061956248610527e-06,-4.4578491894162266e-07,-2.416485100320643e-06,11882,0.393895,21.190621,18.450971
-1.066124466617091,-0.0118169233244395,-0.7626218816781922,0.0006970384188701,0.0112301451250899,-0.0130225928264565,-2.384569871813576e-06,-3.3628008411270136e-07,-2.1895979721991718e-06,11883,0.561151,20.171297,16.796875
-0.8885565079925268,0.382135059391102,-0.8207796261197803,0.000960678685289,0.0108361823348242,-0.0132698119050714,-2.834837418899085e-06,-1.973619771795172e-07,-1.9432075340088548e-06,11884,0.711132,19.241189,14.909905
-0.6179652407128257,0.7837239062821639,-0.879021315699684,0.0012268016854787,0.0101402048312907,-0.0132783035877132,-3.255707777565776e-06,-1.6991002366341654e-08,-1.5487843999723626e-06,11885,0.937676,18.350778,13.120697
-0.3032895040153648,0.8566680101525775,-0.8678902390377324,0.0014861500964359,0.0091880249567297,-0.0130490881028794,-3.415946044770034e-06,1.7457295236671897e-07,-9.98648422810257e-07,11886,1.284909,17.435114,11.728468
-0.0562295087548998,0.7485365599812003,-0.8046387131059028,0.0017196970217558,0.0080177072618019,-0.0125675011605324,-3.198882095043595e-06,3.699005370925505e-07,-2.653153405710101e-07,11887,1.823394,16.429409,10.886902
0.1756079562452417,0.6960396766081147,-0.7336743643092326,0.0019031575017247,0.0067190908066467,-0.0118350376597358,-2.6619001181309383e-06,5.827954061549363e-07,6.655892069001467e-07,11888,2.450911,15.344357,10.460147
0.4764785710855141,0.6594189129851503,-0.6776602601127011,0.0020023111156583,0.0054318637042977,-0.0108627534610952,-2.056213902016107e-06,7.931643793248627e-07,1.6161629842833192e-06,11889,3.065292,14.307243,10.112649
0.7145540846085228,0.5960610046727747,-0.6293035564377163,0.0020072954312329,0.0042130549007182,-0.0096562559828906,-1.6687817847003745e-06,9.71770462015674e-07,2.3670170916293017e-06,11890,3.59831,13.401119,9.604756
0.7500770672555126,0.511178202971097,-0.5315367602105134,0.0019359674801849,0.0030370093805535,-0.008220018009012,-1.624398552441274e-06,1.1262112725667152e-06,2.888216169188952e-06,11891,4.069171,12.649597,9.029363
0.6658655481548088,0.3541181298632219,-0.3768825524052326,0.001816184580265,0.0018563862153284,-0.0065619706289747,-1.8565144357312464e-06,1.2633776833874812e-06,3.231589060558755e-06,11892,4.387796,12.111731,8.442271
0.6112523363759026,0.0791619742614594,-0.2618632002482479,0.0016995466735011,0.0005590773456824,-0.0046920291188807,-2.226962666000325e-06,1.3577430026706731e-06,3.3780676931656126e-06,11893,4.576454,11.778423,7.869758
0.6109683208049854,-0.2397464310459876,-0.1815762134796596,0.0016035552606156,-0.0008847176813329,-0.0026423163954836,-2.5756558948579563e-06,1.395763926434755e-06,3.355817011014415e-06,11894,4.706612,11.650466,7.507925
0.6044940569682213,-0.4204165998455835,0.0466995288641181,0.0015078519564527,-0.0024134687543504,-0.0004723982792928,-2.7012776463689115e-06,1.409162402450856e-06,3.352517539926095e-06,11895,4.766753,11.703286,7.499667
0.5320737225149962,-0.4166868679717783,0.4874475208917756,0.0013921953718092,-0.0039780119047946,0.0017350505430188,-2.469833481964862e-06,1.4341206658584504e-06,3.540066676569257e-06,11896,4.806299,11.877304,7.668505
0.373508014547612,-0.3619694892335605,0.930169394740649,0.0012182294737534,-0.0054984218058885,0.0038605897207544,-1.886494820467196e-06,1.4603553969458086e-06,3.8841681989615154e-06,11897,4.850737,12.103331,8.016254
0.1684794208144355,-0.3281652915534782,1.160480281153471,0.0009732555618399,-0.0069140036327166,0.005833773852583,-1.0244749506116758e-06,1.4431930543639372e-06,4.211948975085991e-06,11898,4.944609,12.203971,9.034002
-0.0052940482787177,-0.2990691750526151,1.18489035638564,0.0006755984996217,-0.0081916855164795,0.0076358870036496,-1.6247844217013223e-08,1.3549157080667057e-06,4.376546322740025e-06,11899,4.980905,12.299901,10.917307
-0.0946495643723392,-0.2853844086592731,1.1290350299797862,0.0003402965381746,-0.0092652237004914,0.0092473260476518,9.35646660473342e-07,1.2028289711929311e-06,4.312541972491475e-06,11900,4.816179,12.823211,12.862031
-0.0964922245206711,-0.2454936628693215,1.0581083766144337,-6.710701011345592e-06,-0.0100454295535385,0.010673175656059,1.6745684747292952e-06,1.0167740171766714e-06,4.047593317930414e-06,11901,4.354749,13.676382,14.449951
0.0002588345439989,-0.0698196533456236,0.9906849726542248,-0.0003471855481731,-0.0104967802513653,0.0118998217822876,2.219859603659704e-06,8.36904856903206e-07,3.716227594715128e-06,11902,3.915147,14.628133,15.830687
0.1779770486798517,0.2349598645384264,0.9484334732764896,-0.0006735574578825,-0.0106368075079309,0.0128909802714128,2.706427858084437e-06,6.799833019154416e-07,3.427447289042613e-06,11903,3.894063,15.434508,17.271613
0.2960633301783246,0.5322649117840396,0.847914599947207,-0.0009676311074196,-0.0105117179925193,0.0136306816662211,3.16838882955516e-06,5.192283612429431e-07,3.110085264246941e-06,11904,3.910857,16.186704,18.989806
0.2587031480190256,0.7337543225396053,0.5936414019251661,-0.0012047518288082,-0.0102247878104837,0.0141139274179254,3.494236626731524e-06,3.143099129514765e-07,2.58750373182964e-06,11905,3.627455,17.112883,20.766895
0.1792023737756913,0.8214820897680407,0.3086305025749106,-0.0013716033953302,-0.0098190153140615,0.0143291959860079,3.607095997464155e-06,5.322613880287038e-08,1.7880007401649525e-06,11906,3.19392,18.209918,22.176094
0.1620645983206405,0.77481790096686,0.1785483956054141,-0.0014648309804628,-0.0092746370673606,0.0142640891052088,3.504677521804381e-06,-2.2240283924865574e-07,8.443004618482145e-07,11907,2.759663,19.365409,23.28141
0.1715097745548967,0.6401006945638587,0.1779250849076397,-0.0014860700120387,-0.0085908127800277,0.0139092594310971,3.1884043934630704e-06,-4.499743656508926e-07,-3.9600538324418526e-08,11908,2.348102,20.527558,24.194703
0.1923698688236914,0.530552018622084,0.1793204519534148,-0.0014475705780183,-0.0077555343494228,0.0132567578785612,2.7583965198586435e-06,-6.099236341234562e-07,-7.529881699583739e-07,11909,2.080961,21.639048,25.068565
0.2516710859974419,0.4813444115696567,0.1610627536842631,-0.0013588494569343,-0.0067793784390304,0.0123218016796558,2.415442607031997e-06,-7.229608739279906e-07,-1.2727701196310226e-06,11910,1.914894,22.596183,25.939008
0.3147224431513098,0.4511688593755469,0.1473823929924781,-0.0012279528034705,-0.0057062226349185,0.0111479725095651,2.223267904090815e-06,-8.102789686120761e-07,-1.639841591974795e-06,11911,1.832723,23.373495,26.785005
0.2995535707195543,0.4162836868465926,0.1307340381227194,-0.0010746389870555,-0.0045775624996016,0.009802206041809,2.037252729092609e-06,-8.872203013868844e-07,-1.9675589659608595e-06,11912,1.772508,24.051568,27.451679
0.2107357619526243,0.381620363217867,0.1207253092787297,-0.0009299659643884,-0.0034464774798697,0.0083889191637326,1.7384709885287152e-06,-9.642064435407249e-07,-2.342777539711192e-06,11913,1.723405,24.695137,27.897786
0.1410712890017528,0.3438439183582802,0.133086429885136,-0.000808405918941,-0.0023446013076498,0.00696073150291,1.4028122512633872e-06,-1.0230411729182869e-06,-2.676823960130197e-06,11914,1.699262,25.286895,28.272806
0.1194149178746453,0.2501882494988704,0.149914114164002,-0.0007082296058469,-0.001276132846374,0.0055152417134653,1.1534734159961707e-06,-1.0172268543514797e-06,-2.7707844276893105e-06,11915,1.721858,25.766308,28.607523
0.1090720348261115,0.0676823001081706,0.1472001439147426,-0.0006248916081014,-0.0002435457746362,0.0040492436798117,9.892538199468686e-07,-9.472978289403292e-07,-2.628308928430954e-06,11916,1.762601,26.12655,28.806161
0.0897393159516752,-0.1132518835559121,0.1250740661886268,-0.0005425549812717,0.0007650920715421,0.0025315184805987,8.936114466485728e-07,-8.966831417918004e-07,-2.51860649485838e-06,11917,1.769525,26.395549,28.880318
0.0779823726189941,-0.2004427499324446,0.0966198967025333,-0.0004546909073906,0.0017619049311138,0.0009586685565748,9.341562417438264e-07,-9.345153777834964e-07,-2.6266573176303923e-06,11918,1.716243,26.54692,28.844688
0.0685138729412911,-0.2281887482326656,0.0707086254781206,-0.0003648920132326,0.002759530232178,-0.000639590913096,1.1254858419903614e-06,-1.0528537628016452e-06,-2.918738058594449e-06,11919,1.599648,26.554711,28.724191
-0.0117661321710435,-0.2548260943968331,0.0475283966538608,-0.0002694232604321,0.0037924828200494,-0.0022496118604502,1.3704759068235677e-06,-1.2227792762923843e-06,-3.345414689668523e-06,11920,1.450347,26.388463,28.568088
-0.163050656269013,-0.3369627236080967,0.0379283309000539,-0.0001617103155249,0.0049184364752626,-0.0038592906878995,1.573333160892765e-06,-1.4111565572569625e-06,-3.844903015294243e-06,11921,1.258155,26.075039,28.487401
-0.28233567823092,-0.5444472166280723,0.0427338494512765,-3.965056703577387e-05,0.0061369322492524,-0.0054519084616728,1.660647136746672e-06,-1.5536860204637429e-06,-4.2496416379267295e-06,11922,0.969524,25.661328,28.338761
-0.376584721809409,-0.8121354586349196,-0.0288551696384706,9.593604020700474e-05,0.0073847357677031,-0.0070108269224206,1.5230092186412243e-06,-1.591950960734706e-06,-4.426996664683666e-06,11923,0.767477,25.237923,27.73446
-0.525207351907756,-1.0019787641548756,-0.2575052565046057,0.00024163263081,0.0085703868618724,-0.0085114062263709,1.057998553639748e-06,-1.5201708260255646e-06,-4.404923243336562e-06,11924,0.504795,24.87491,26.362913
-0.6502659481306872,-1.0934103442103893,-0.5303245291681715,0.0003894286165233,0.0095420985924397,-0.0099195173809716,3.221304481649882e-07,-1.3732754285506638e-06,-4.265735296708734e-06,11925,0.355647,24.479635,24.326637
-0.6770599486563664,-1.0913220071743417,-0.6825846905433957,0.0005349531604472,0.010236855008611,-0.0112037360136923,-4.213871932192526e-07,-1.1729609304522567e-06,-3.957612654670176e-06,11926,0.334371,23.919657,22.527551
-0.7414868581981003,-0.9745925304433612,-0.7076015652456592,0.0006772000982882,0.0106891898678527,-0.0123328542794469,-9.31423234511111e-07,-9.159336476883531e-07,-3.361914614652313e-06,11927,0.482175,23.142433,21.188467
-0.9253863253954956,-0.7619953514383564,-0.6896466290877485,0.0008126249567635,0.0109365648455493,-0.0132668675020936,-1.1916297108872788e-06,-6.325263488004939e-07,-2.5667905305431072e-06,11928,0.753274,22.145379,19.793201
-1.0773208182434255,-0.4405931690057561,-0.7068307779731208,0.0009367458332567,0.0110666837729376,-0.0139571666300261,-1.31267284784535e-06,-3.7606006458948905e-07,-1.7913950288266314e-06,11929,1.19138,20.952912,18.453641
-1.0353300479239045,-0.0101918685567955,-0.7869937090396129,0.0010465757318692,0.0111047386726166,-0.0143723370621316,-1.4087625466767438e-06,-1.5526711252922988e-07,-1.1181247965012185e-06,11930,1.507913,19.736886,17.03514
-0.7938010656841716,0.4010828818119927,-0.8548168835138985,0.0011401140708412,0.0110014291073315,-0.0144989402472888,-1.601806301349916e-06,4.5605143353698095e-08,-5.514898826292719e-07,11931,1.615271,18.684858,15.302861
-0.478275194878703,0.6526732891060738,-0.8385222204570005,0.0012162452111601,0.010723554347737,-0.0143299148760456,-1.94606673672012e-06,2.2504410684000345e-07,-1.1640362298947077e-07,11932,1.718216,17.756153,13.462739
-0.2826619147824563,0.7180001608526422,-0.7767777447440183,0.0012754159995392,0.0102201437421825,-0.0138738527903762,-2.307072407410749e-06,3.811297461473032e-07,2.397090404187617e-07,11933,2.001442,16.828626,11.946345
-0.2399441238875689,0.6643036053659415,-0.7161559353132415,0.0013165527982125,0.0094749757172743,-0.0131382118459679,-2.4674152533391177e-06,5.402757604866148e-07,6.90359309991863e-07,11934,2.367278,15.861315,10.828316
-0.0983311745560288,0.6050737008505014,-0.6549323073936054,0.0013371002669764,0.0085196121833717,-0.0121312399549478,-2.3991109971192085e-06,7.415477418978192e-07,1.369414283536408e-06,11935,2.752148,14.904235,9.938393
0.2321009733160593,0.5735167366793266,-0.5999896985478679,0.0013351020298789,0.0073854962638865,-0.0108817219450423,-2.2930648645463525e-06,9.77407653241862e-07,2.1727743754456627e-06,11936,3.195199,13.974233,9.138458
0.4709188855697878,0.5178083697605325,-0.5564669347060538,0.001308487113436,0.006124969794415,-0.0094399829447079,-2.2917399805617385e-06,1.1974855138440436e-06,2.880191856091105e-06,11937,3.636467,13.127773,8.361665
0.4732394097834845,0.4523355634647275,-0.506067620569402,0.0012562460573445,0.0047667575204082,-0.0078373711263452,-2.39117855827993e-06,1.3727458552590062e-06,3.398899942376609e-06,11938,4.08184,12.476252,7.728978
0.4078453936623757,0.3099202408878267,-0.4481439562880718,0.001178839531927,0.0033102526831032,-0.0060890008830867,-2.599150871451991e-06,1.491188253024063e-06,3.6867702913490863e-06,11939,4.337695,12.059667,7.176675
0.3993638686749008,-0.0607226230817777,-0.365960862032842,0.0010773627037419,0.0017646574757909,-0.0042172933017197,-2.92777262217098e-06,1.5383228463550305e-06,3.69399612169424e-06,11940,4.401839,11.890562,6.653014
0.4217368667638543,-0.5057003664027422,-0.1539459459140925,0.0009542191092174,0.0001358964922837,-0.002243388697722,-3.2516725552137583e-06,1.5354535911343842e-06,3.540913692408173e-06,11941,4.445643,11.880112,6.392577
0.4353082986893622,-0.70416635399065,0.2060889130200177,0.000812212196787,-0.0015485021389884,-0.0002027412943603,-3.3564895282143435e-06,1.5328497704380855e-06,3.4796220708375037e-06,11942,4.39447,11.97082,6.421562
0.4035990248824772,-0.6540417464240789,0.5189495572567224,0.0006548052093844,-0.0032315322466568,0.0018499579198985,-3.0984209677657794e-06,1.5503804642481123e-06,3.642576542930656e-06,11943,4.243073,12.145175,6.763429
0.3082621336034176,-0.5718065961152718,0.6940054986287054,0.0004876193344704,-0.004844431838585,0.0038509404282524,-2.486802832206609e-06,1.5628468217146146e-06,3.951765177160513e-06,11944,4.174485,12.346099,7.423504
0.1830285373286114,-0.5267155363191565,0.8663619485073261,0.0003188061599321,-0.0062931223994949,0.0057185200509518,-1.6598249795171092e-06,1.5286675923353112e-06,4.210880945788009e-06,11945,4.272651,12.507916,8.568441
0.0791628232165346,-0.4747668253817225,1.042621046293058,0.0001533865725353,-0.0075245885814268,0.0074004036825945,-8.237453913384664e-07,1.415729343602404e-06,4.220097501173353e-06,11946,4.255185,12.746745,10.307964
0.0319968031761286,-0.4225156678968482,1.0888696941529776,-6.699518438784563e-06,-0.0085319052233006,0.0088770917281408,-1.8933570686149346e-07,1.2156475487928264e-06,3.85896081216629e-06,11947,3.929279,13.360089,11.775503
0.0334166761201134,-0.3600300463526514,1.0264701891814163,-0.0001594305229254,-0.0093128319440515,0.010133125393343,1.799313467999315e-07,9.6247727053659e-07,3.208959204101125e-06,11948,3.186531,14.214791,12.468645
0.0681676310872571,-0.1907887843924287,0.9535514863436544,-0.0003042802807398,-0.0098922579425595,0.0111731654974821,4.498914552811808e-07,7.21193061591929e-07,2.546829418688696e-06,11949,2.518315,15.111172,13.083331
0.136225179916188,0.1302101509935723,0.902226714328299,-0.0004380618034768,-0.010285020818019,0.0119954715605892,8.395750883613811e-07,5.260202835194465e-07,2.07804466530504e-06,11950,2.449448,15.82577,14.242885
0.1763267189044478,0.4647592855583177,0.8465173195870702,-0.0005543883565613,-0.0104952813765931,0.0125918743744364,1.4113427116311496e-06,3.586212915500916e-07,1.7796500470669798e-06,11951,2.46554,16.465348,15.864467
0.1281776470666536,0.6633188303619789,0.6790087759150134,-0.0006466491685446,-0.0105575409978355,0.0129775168186473,2.0379740855350416e-06,1.8463902393008042e-07,1.4916173494968555e-06,11952,2.217645,17.28028,17.427864
0.0550787601878851,0.7453459583069861,0.4025901013818224,-0.0007065245983351,-0.0105329740835949,0.013188831655259,2.511951332956529e-06,-1.4326606648664556e-08,1.060085995620819e-06,11953,1.85743,18.290921,18.800351
0.0317111653974688,0.7549560611399727,0.2177197902867698,-0.0007297795366213,-0.0104464910779608,0.0132371597077692,2.680130835883032e-06,-2.278571857970664e-07,4.4583577734774123e-07,11954,1.543172,19.349229,20.024822
0.057014800166328,0.6922254728236845,0.1952096524897334,-0.0007170565938983,-0.0102893633926374,0.0131113031913431,2.52111359114445e-06,-4.35335115245885e-07,-2.924018588170772e-07,11955,1.286045,20.368703,21.056823
0.1420628177424699,0.6184542447052237,0.1949563281036015,-0.000670370778172,-0.0100478179737454,0.0128000734242262,2.19322907497038e-06,-6.226217025959732e-07,-1.0364489273129525e-06,11956,1.070544,21.322145,21.900955
0.2726002440169656,0.5806246905929313,0.1534140745111235,-0.0005954595788555,-0.0096850560415599,0.0122802110365714,1.9694333856709336e-06,-7.68391603678971e-07,-1.6039148557263731e-06,11957,0.95271,22.135101,22.713483
0.3554251900846996,0.5508864427292597,0.1239792245117381,-0.0004996043850467,-0.0091900223186505,0.0115524562069271,1.999909398248031e-06,-8.583415330619858e-07,-1.8892560807898184e-06,11958,0.885816,22.832166,23.563319
0.3411221952458488,0.5163253129061502,0.1161245079571653,-0.0003923545904597,-0.008580507092832,0.010646033068199,2.1893951226272237e-06,-9.115511047097528e-07,-1.988910231476853e-06,11959,0.907845,23.426809,24.392398
0.284229619549676,0.4802144574165347,0.1095150001146101,-0.0002899448332696,-0.0078656419716731,0.009594716903115,2.368853855100989e-06,-9.54391011520211e-07,-2.0511311653488594e-06,11960,0.94079,23.95289,25.121328
0.2422636915217109,0.4454938833033134,0.1040759121269858,-0.0002165986972199,-0.0070591298245856,0.0084502377779709,2.475149279470726e-06,-9.807096628673288e-07,-2.0851357091025266e-06,11961,0.991375,24.469294,25.746551
0.2134464927221253,0.4076295500158677,0.0989354861794614,-0.0001833803955085,-0.0061704861236427,0.0072403466880653,2.502158943139032e-06,-9.679316277446795e-07,-2.0307905450435595e-06,11962,1.055816,24.982393,26.30724
0.1885115323371806,0.3173385646722709,0.0890210021296331,-0.0001876644612293,-0.0052011379121175,0.0059651237634476,2.404614671754653e-06,-9.304809641777476e-07,-1.9564542732155253e-06,11963,1.100999,25.465613,26.767796
0.1827126697932764,0.191922685823152,0.066627923445744,-0.0002240109567484,-0.0041586143942953,0.0046274888369376,2.184311308242406e-06,-9.091418336294908e-07,-1.986950371005885e-06,11964,1.090022,25.87516,27.073112
0.1883055142878097,0.1154924484316691,0.0344918635683892,-0.000277202591315,-0.0030537012589754,0.0032201814543135,2.0294014501858123e-06,-9.130792847476108e-07,-2.070228486156398e-06,11965,1.014649,26.163451,27.255258
0.1372196645198084,0.0479154183414589,0.003807801324492,-0.000335565573424,-0.0018988480642781,0.0017490914231836,2.157249871051717e-06,-9.397792290915802e-07,-2.106498991798274e-06,11966,0.881135,26.304159,27.334001
-0.0484941994128147,-0.0413629800133239,-0.0115949631201411,-0.0003907205698559,-0.000710806366254,0.0002369973880033,2.5068828593740017e-06,-1.0017938865123752e-06,-2.1574996188794813e-06,11967,0.72295,26.26762,27.32967
-0.3320830750323849,-0.1034925727971615,-0.0146499258061089,-0.0004237468353005,0.0004894839102773,-0.0012975026600966,2.824246525819881e-06,-1.0827021697903122e-06,-2.2772519089123174e-06,11968,0.523299,26.011661,27.421952
-0.5572919835207489,-0.2973899849206708,-0.0826057613491521,-0.0004063475685513,0.0016751054609794,-0.0028325972580797,2.957386250690108e-06,-1.1390968609519277e-06,-2.3987369262064074e-06,11969,0.35059,25.629925,27.514129
-0.6442259062049991,-0.7816401848237293,-0.2838219836395244,-0.0003255572083538,0.0028232206678042,-0.0043466494134814,2.843981722281526e-06,-1.149223902879887e-06,-2.484962460690291e-06,11970,0.104786,25.327323,26.999658
-0.6499050438879841,-1.2786373441415546,-0.5309672223389473,-0.0001834163147509,0.0039147121200634,-0.0058198592793143,2.424446650977573e-06,-1.1106885921545216e-06,-2.5512049718741005e-06,11971,-0.221829,25.092424,25.782528
-0.6454567481959472,-1.3931658978518828,-0.6856616541355746,1.3862644847543646e-05,0.0049266506075056,-0.0072260607599374,1.7604952325912391e-06,-1.012569337037555e-06,-2.530837506739253e-06,11972,-0.461056,24.746097,24.327588
-0.6936969875987493,-1.1450671940221857,-0.7305031716876337,0.0002479849444212,0.0058341142470803,-0.0085329554851254,1.0433819832925364e-06,-8.581275127795963e-07,-2.3498730125175423e-06,11973,-0.50668,24.186732,23.279619
-0.8046837192704099,-0.7708468915407766,-0.7345529052586679,0.0005061033775092,0.00660043865139,-0.0097011858129545,3.703205677903435e-07,-6.953794439714697e-07,-2.118940790454296e-06,11974,-0.284035,23.413583,22.222282
-0.8682350866199888,-0.3237599936171632,-0.7566074962053058,0.0007804231437079,0.0071736593957869,-0.0106806907641819,-3.455455827931477e-07,-5.570314828366823e-07,-1.980932779611976e-06,11975,0.127686,22.430167,20.718967
-0.8320616804561586,0.1362396445786455,-0.791323260883162,0.0010514315171839,0.0074889665859848,-0.0114077148520796,-1.189512114176616e-06,-4.130225166821519e-07,-1.8815878444537287e-06,11976,0.55593,21.288126,18.950771
-0.7581247875104187,0.4071913157623776,-0.803929089050937,0.0012899075125706,0.0074612251879766,-0.0117995839144861,-2.0908025262831297e-06,-2.3769764322018377e-07,-1.7115049406382552e-06,11977,0.767481,20.241664,16.971789
-0.5916791338266392,0.4640234253673317,-0.8173289661159464,0.0014810597518137,0.0070639710563758,-0.0118181106316543,-2.888876576778165e-06,-4.590910185731251e-08,-1.4451775553980646e-06,11978,0.823664,19.35131,15.108595
-0.3251560422799479,0.4946865782988941,-0.8536388920575488,0.0016236434259223,0.006337355344862,-0.0114743889460644,-3.443612842095912e-06,1.5385717098054464e-07,-1.0444032341803613e-06,11979,0.926692,18.538589,13.526833
-0.1579150211739391,0.5516469032172899,-0.8530849266031804,0.0017196250420562,0.0053512134723468,-0.010798053560871,-3.6983757962045177e-06,3.652506276224661e-07,-4.7194118448012076e-07,11980,1.345916,17.681517,12.482136
-0.0653414394383273,0.5359541008886317,-0.7829785391617379,0.001781446934412,0.0042383954012007,-0.0098620515139912,-3.752255724140502e-06,5.754144186541522e-07,1.8661032529190533e-07,11981,1.984483,16.721247,11.871941
0.1604855204708775,0.4817442452716022,-0.7119347137925802,0.0018132981131402,0.0030596471351057,-0.0087069219116068,-3.784871753211686e-06,7.717193755901853e-07,8.098789042155022e-07,11982,2.561776,15.831766,11.262093
0.4070961758750158,0.4584340852206532,-0.6663094128811718,0.0018106692039939,0.0017984284830984,-0.0073401976765452,-3.879220435770216e-06,9.65487760227091e-07,1.395699621581873e-06,11983,3.050473,15.101502,10.478888
0.4594670097670009,0.4229258276600879,-0.5736527316247308,0.0017759732068127,0.0004548920479334,-0.0057979620704555,-4.030765509549208e-06,1.1629079585664497e-06,1.9656977708311035e-06,11984,3.529983,14.508803,9.682991
0.4059713201259057,0.3416377346388748,-0.4272039312383708,0.0017146662187362,-0.0009911281801893,-0.0041297602358316,-4.200614788606034e-06,1.3348338093071882e-06,2.443643875186786e-06,11985,3.937984,14.012383,9.027654
0.401627830047674,0.1596262954982634,-0.3206026985262504,0.0016288302139643,-0.0025311836501658,-0.0023751106067484,-4.304733213795061e-06,1.4534912583366448e-06,2.777083007813813e-06,11986,4.254338,13.646117,8.611616
0.4333531322836471,-0.141920996063893,-0.2650975989375552,0.0015187865982645,-0.0041169098288544,-0.0005707212904665,-4.310190948885379e-06,1.5184201216837125e-06,2.9814010104321884e-06,11987,4.366326,13.486496,8.502479
0.4543232040588173,-0.4073689362920385,-0.1448757944368383,0.0013837798238239,-0.0057098956211887,0.0012461940775517,-4.263924641420566e-06,1.519062180411019e-06,3.007689513414822e-06,11988,4.300411,13.588227,8.676368
0.4410314669925407,-0.4932025523640316,0.1139541889824342,0.0012206261531034,-0.0072649093159475,0.0030412146735243,-4.134940350549508e-06,1.4531766580055584e-06,2.8633355873619408e-06,11989,4.236553,13.891892,8.992262
0.39313447150233,-0.434820923010303,0.4900504031994223,0.0010318446691158,-0.0087380176568328,0.0047755501021581,-3.7746665203736298e-06,1.369647998691531e-06,2.764069135911508e-06,11990,4.230874,14.150437,9.54751
0.3273161122348681,-0.3708081334325949,0.888110594893794,0.0008262988667112,-0.0100909945912123,0.0064057314689495,-3.125203490727653e-06,1.3073509053583064e-06,2.855787746040689e-06,11991,4.232269,14.330658,10.363361
0.1917643314213951,-0.3823396169418173,1.136402947115292,0.000615033370363,-0.0112725712263284,0.0078884466143112,-2.345369113885313e-06,1.2390723296739689e-06,2.982845799685099e-06,11992,4.277836,14.529006,11.532145
0.0049790041580592,-0.4266553545019394,1.1886661985415816,0.0004143942396639,-0.0122197467585939,0.0091784686664907,-1.6255823568031167e-06,1.1211951477768298e-06,2.9225969513273543e-06,11993,4.073063,14.946007,12.862789
-0.0270489865726513,-0.4834613024510047,1.1862256522656014,0.0002332730617602,-0.0128952659872558,0.0102461598096848,-1.0232590526925074e-06,9.6343065765584e-07,2.679829242202767e-06,11994,3.712228,15.626394,14.039846
0.1601157042096147,-0.498673988984566,1.1843373029916973,7.22648897656958e-05,-0.0132882858225811,0.011080805511941,-5.277340853277894e-07,8.131240306257254e-07,2.412629939491513e-06,11995,3.213102,16.505723,15.027724
0.3533205878023789,-0.2833582953208475,1.138530818518487,-6.788392897031872e-05,-0.0133997181852194,0.0116837806293432,-8.045161040662106e-08,6.747048519301437e-07,2.1658015200868074e-06,11996,3.108365,17.251551,16.185593
0.4124763700827759,0.1320168637929036,1.0551210533869675,-0.0001902722657937,-0.0132560151116482,0.0120779732735583,4.701965006782802e-07,5.139580580074555e-07,1.8971492858166083e-06,11997,3.131534,17.764229,17.533773
0.3064759286914109,0.4745101927977435,0.9247033398881396,-0.0002948948120337,-0.0128890511985279,0.0122746461240786,1.2198362727449509e-06,3.272352145554537e-07,1.6311085919897312e-06,11998,2.979534,18.274416,19.026715
0.0016981276611357,0.7008434022874325,0.7760570038339982,-0.0003779409855788,-0.0123411698181769,0.0122748844080926,1.992559272097008e-06,1.2964247456734864e-07,1.334730339725976e-06,11999,2.699214,18.925967,20.435453
-0.2867413550678351,0.9088018729746532,0.6850610020200931,-0.0004385943011375,-0.0116945848003577,0.0120972188383265,2.4612429932687007e-06,-7.653493918963079e-08,8.743608206301174e-07,12000,2.384949,19.714458,21.696832
-0.2652702169091818,0.9862313746277565,0.5636361620759527,-0.0004774395943268,-0.0110774920452311,0.0117729756868003,2.4960369902660798e-06,-2.818084819799186e-07,2.2624028363429802e-07,12001,2.118142,20.612365,22.668512
-0.0373343432198625,0.8933040317353692,0.3367464140255174,-0.0004944324695896,-0.0105500298923551,0.0113178926271504,2.2440758581220834e-06,-4.5389697385731337e-07,-4.437489395908365e-07,12002,1.904776,21.548589,23.318745
0.1679501993796671,0.8087846356903861,0.1687289815442582,-0.0004898015621281,-0.010103182743635,0.0107344786288142,1.9213447911202927e-06,-5.562329226548383e-07,-9.26050111377516e-07,12003,1.74624,22.414916,23.824961
0.3746325979835632,0.7609300037900926,0.1504996274125137,-0.0004642021671203,-0.0097186491472896,0.01002350473641,1.6611354522653038e-06,-5.991151138468377e-07,-1.191773110019656e-06,12004,1.641258,23.151173,24.306193
0.5474153974668317,0.7018758594167432,0.1594305790122008,-0.000418656372555,-0.0093335006456105,0.0091765394490273,1.5272651128780028e-06,-6.410408781858759e-07,-1.394713622934882e-06,12005,1.568318,23.734079,24.798552
0.4787109186556313,0.6590032690117877,0.1360066463301989,-0.0003578047384539,-0.0089176555563827,0.0082022118695198,1.5355333015148033e-06,-7.121648847247482e-07,-1.6236071904697188e-06,12006,1.52118,24.166162,25.296065
0.2126140397659423,0.5645085463592556,0.1092602816504978,-0.0002907014336034,-0.0084771137180245,0.0071287550071631,1.6125924094595826e-06,-7.932483291676199e-07,-1.850633646781912e-06,12007,1.505949,24.452757,25.759791
0.0357555802641199,0.3725699182457577,0.0729308527657087,-0.000230292403085,-0.0079844002373041,0.0059872859504915,1.6475536988358115e-06,-8.620832714455432e-07,-2.0537536018992266e-06,12008,1.530065,24.675613,26.133314
0.0120897217491849,0.2002746848574776,0.0380740732141551,-0.0001956302798541,-0.0073941320051973,0.0048211271349442,1.6167335246707395e-06,-9.213141279912454e-07,-2.251998288245096e-06,12009,1.57365,24.874954,26.387265
0.0195428312291629,0.1232376456870572,0.0234811757468769,-0.0001944689592102,-0.0066871950957176,0.0036555158809896,1.5781151764342488e-06,-9.901824709470286e-07,-2.482092862485325e-06,12010,1.607569,25.06458,26.569551
0.1123470282602008,0.0391215259205799,0.0124936464511762,-0.0002221907478782,-0.0058648846675131,0.0024946967253345,1.5856111597105103e-06,-1.0697664340519889e-06,-2.7262093824433817e-06,12011,1.600499,25.210985,26.682567
0.3034125597710939,-0.0644228566537938,-0.0116702245618238,-0.000271281204752,-0.004938461634527,0.001343178431129,1.7007176346277665e-06,-1.1471526665661943e-06,-2.919366126469404e-06,12012,1.548666,25.268837,26.707181
0.3378783859315008,-0.1237436774011205,-0.0406853906476448,-0.0003251675142782,-0.0039414570738671,0.0001957973031073,2.0372208612258765e-06,-1.2287817880963955e-06,-3.0333033227666425e-06,12013,1.449647,25.216274,26.716099
0.115468949588441,-0.3317857224629956,-0.0558444209893471,-0.0003676478456588,-0.0028999757494892,-0.000941003489961,2.626573263753889e-06,-1.326436758410095e-06,-3.090898364529222e-06,12014,1.326052,25.044056,26.81028
-0.1657608777516116,-0.7262745901778194,-0.0868611433190423,-0.0003820312680585,-0.0018351302950933,-0.0020466119121321,3.2453566679145465e-06,-1.434322785968028e-06,-3.169721818143516e-06,12015,1.135135,24.741175,26.954769
-0.3403104353803238,-0.9891080941185996,-0.1632321185042518,-0.0003391681500217,-0.0007911224104163,-0.00310430642629,3.574011781754035e-06,-1.5335902256339114e-06,-3.3488140915266804e-06,12016,0.881722,24.332525,27.005973
-0.3916653551148664,-1.105049725481547,-0.2756753346298837,-0.0001967720029649,0.0001665283769114,-0.0040949201664688,3.4873467976782496e-06,-1.6142480381093783e-06,-3.6504604837451433e-06,12017,0.657642,23.956086,26.469156
-0.3701705696445367,-1.2674754589275952,-0.4562154909753098,5.712418072785291e-05,0.0010004283176274,-0.00500118879008,3.046785547822196e-06,-1.6718996887409037e-06,-4.0296972026560215e-06,12018,0.361666,23.666554,25.148298
-0.2990360731319343,-1.373918832233245,-0.6806849056843426,0.000402037370242,0.0016995823651629,-0.0058095693581154,2.3900488231925e-06,-1.659288865499381e-06,-4.2735388601863165e-06,12019,0.143038,23.365714,23.625716
-0.265752344358181,-1.303749331727644,-0.7977053925461641,0.0008040281416172,0.002255568025073,-0.0065031073887753,1.7483159630144606e-06,-1.511885430076976e-06,-4.079579314183641e-06,12020,0.194104,22.918672,22.658759
-0.4707928038271839,-1.072791212126863,-0.7548245917318039,0.0011990852101108,0.0026765062421139,-0.0070627127623655,1.326081871997008e-06,-1.241272062949682e-06,-3.398319974772643e-06,12021,0.575368,22.276189,21.986132
-0.8613307626293235,-0.7162809196507347,-0.6828443869912604,0.0015543629343082,0.0029488517314141,-0.0074718793672019,1.0512211483996529e-06,-9.21829734836772e-07,-2.4960609380531844e-06,12022,1.064011,21.562527,21.088304
-1.0852539670076824,-0.4054719667678217,-0.6750280943338989,0.0018700723915478,0.0030341826931447,-0.0077159522589486,6.229420979642431e-07,-6.011934299123975e-07,-1.6553340599143416e-06,12023,1.449968,20.835696,19.705328
-0.9671941301150844,-0.1321488477605281,-0.7001727524558594,0.0021351463299695,0.0028976716264905,-0.0077808028196864,-1.240978191102593e-07,-2.902446747822379e-07,-9.8792914906808e-07,12024,1.682744,20.156406,17.888228
-0.5933577503275732,0.3520363000178149,-0.6990995213938108,0.0023428990061394,0.0024965968185132,-0.0076539513903007,-1.037817097154668e-06,-2.617775501138974e-09,-4.7423771759102165e-07,12025,1.906902,19.593726,16.088629
-0.1431508358981175,0.8515052144688802,-0.6549580620164083,0.0024849854443442,0.0018333441348554,-0.0073303286106841,-1.8432100528210708e-06,2.609366657968618e-07,9.463871742662164e-09,12026,2.273937,19.064256,14.86771
0.1144656424076414,0.9713352572305932,-0.6290052646862043,0.0025473622326143,0.0009659609883981,-0.0068140177419151,-2.3465592875408465e-06,5.286131413056894e-07,6.455610414206683e-07,12027,2.729306,18.568113,14.211283
0.1075822085836584,0.8457580156723445,-0.6492072656510356,0.0025252497516307,-1.774647514501352e-05,-0.0061184688888803,-2.489673975425925e-06,8.112301748979976e-07,1.4938403433015517e-06,12028,3.188908,18.107943,13.78435
0.1070570860798978,0.7828946216932903,-0.6449163251566479,0.0024217742044545,-0.0009731027007126,-0.0052711912511421,-2.3991765660687547e-06,1.0895227803060084e-06,2.433616437103094e-06,12029,3.697669,17.566363,13.445788
0.2220302991477052,0.7623596650765427,-0.5860034467273443,0.002243468993414,-0.0018454033640149,-0.0042912780534414,-2.3338953041387683e-06,1.3507375256186844e-06,3.308501107707597e-06,12030,4.25675,16.951838,13.045981
0.2794170064167997,0.6106094774201278,-0.5051745053278835,0.0020043781935991,-0.0026790213186315,-0.0031906773355304,-2.502404810024422e-06,1.5748678166152749e-06,3.961281012635243e-06,12031,4.675738,16.381401,12.464321
0.2482334458236152,0.2900241459464386,-0.4518078740079231,0.0017304054804817,-0.0035280736621133,-0.0019913867833408,-2.9507906492830768e-06,1.724032886958953e-06,4.247912624878196e-06,12032,4.942944,15.996074,11.756119
0.2678825265200894,-0.0404246903502634,-0.4340259433393419,0.0014627841390514,-0.0045049366704689,-0.0007220083720353,-3.5745329563211178e-06,1.7948472342763095e-06,4.201197438448544e-06,12033,5.101776,15.824301,11.232611
0.3918874083010016,-0.2252675014452274,-0.3033998535247352,0.0012208964257879,-0.0056427127708771,0.0005953440657992,-4.2130232869827735e-06,1.818667418316467e-06,3.995003629307888e-06,12034,5.149894,15.826619,10.986661
0.4870898028440081,-0.2940667069564627,0.000708551515571,0.0010014473418857,-0.006882156681303,0.0019432326838563,-4.731231266608656e-06,1.8056787027899029e-06,3.727007337445919e-06,12035,5.066253,15.985814,10.887204
0.4045308300859886,-0.3154564794977131,0.2120361344005071,0.0007995016956686,-0.0081739883287817,0.0033040046517423,-5.0215352563006485e-06,1.763230531881545e-06,3.467809650262089e-06,12036,4.944287,16.272705,10.890987
0.2046088664188348,-0.2971449869061494,0.2546180079806374,0.0005970581933875,-0.0094359790461409,0.0046626687644866,-5.035018806507839e-06,1.726747721655558e-06,3.3477082580486805e-06,12037,4.888646,16.487091,11.102554
0.040034291053075,-0.2698840901730308,0.4631588115943975,0.0003888224318181,-0.0106192663866072,0.005992437119466,-4.854473414664341e-06,1.6950606416170749e-06,3.3256764209648614e-06,12038,4.896885,16.634741,11.591054
-0.054238406173107,-0.2396367150766352,0.8702031855875096,0.0001841516840168,-0.0117191080182908,0.0072524946784621,-4.656012439420356e-06,1.604900197013987e-06,3.124718779894535e-06,12039,5.01007,16.880414,12.483951
-0.1084849766787462,-0.2097738271346453,1.1352407807382354,-1.4878176955591092e-05,-0.0127083946593016,0.0083949000393754,-4.5407593122764415e-06,1.427691094621726e-06,2.609023355753883e-06,12040,4.759062,17.417659,13.233087
-0.1279805634025191,-0.2833267817455391,1.187859815669714,-0.0002069700163837,-0.0135562424563594,0.0093577528481241,-4.445720343903105e-06,1.209886600533553e-06,1.9519086462570454e-06,12041,4.35183,18.099401,13.681931
-0.1171668508985698,-0.4537641287537077,1.169733660112061,-0.0003895456581465,-0.014241706453434,0.010107137656282,-4.2556519783226855e-06,9.907266467949773e-07,1.330637441132364e-06,12042,3.842985,18.855119,14.224594
-0.0939129450641583,-0.4126071776368454,1.1074599077856613,-0.0005610053830501,-0.0147477528208031,0.0106406280135295,-3.886399311382794e-06,7.619467961040116e-07,7.604769720180758e-07,12043,3.634968,19.481321,15.325155
-0.0853378617567631,0.0085120726134092,1.0236263414200262,-0.0007170413165063,-0.015069645148665,0.0109638475745736,-3.2422511002661445e-06,5.218405167270116e-07,2.779905853101358e-07,12044,3.578779,19.949723,16.579739
-0.0831318781178569,0.4410611869014673,0.9402698694151866,-0.0008504479349924,-0.0152189629049973,0.0111059967705723,-2.2839504885549256e-06,2.950168740330975e-07,-2.6508197666791385e-08,12045,3.454675,20.299262,17.928811
-0.023011083426914,0.584895795003371,0.8066598057004682,-0.0009568471210159,-0.0152067356087391,0.0110850652762922,-1.175897483810648e-06,7.836364964103973e-08,-2.376425384956788e-07,12046,3.292555,20.644182,19.424167
0.1057110034235579,0.6775035136029557,0.653354557764273,-0.0010341771690115,-0.0150479041587442,0.0109080895089728,-2.363356313696363e-07,-1.6406629766385138e-07,-6.061595033913585e-07,12047,2.987145,21.095652,20.659061
0.2237743246779104,0.8595795201784926,0.5266419397606781,-0.0010797242773118,-0.0147770425105381,0.0106045739390112,3.341233046364425e-07,-4.3433370415662485e-07,-1.22451566795136e-06,12048,2.607742,21.68145,21.438011
0.2805499130834183,0.8927814298856371,0.3723582372655961,-0.0010913457081261,-0.0144503416566577,0.0102220325714603,6.135900913305388e-07,-6.905052155271004e-07,-1.9271993969240683e-06,12049,2.218779,22.323012,21.999724
0.3001433498659731,0.7394525373606808,0.210271645356886,-0.0010675102798958,-0.014093558260849,0.0097833206592976,7.604921161489335e-07,-9.053701873412724e-07,-2.5576864626480847e-06,12050,1.937108,22.903991,22.580644
0.3084028680819002,0.6209172092527746,0.1309125463847197,-0.0010072450057,-0.0137019625540482,0.0092889277740109,7.978824900363894e-07,-1.0925072019849857e-06,-3.144322230598769e-06,12051,1.738793,23.403986,23.15367
0.3123143554740202,0.5809013187793071,0.1175959316576838,-0.0009112211846101,-0.0132677658597128,0.0087350491494745,7.216064927204075e-07,-1.26562139641632e-06,-3.731541897082975e-06,12052,1.616941,23.805801,23.667897
0.30892923187428,0.5433625366963042,0.0907573656060527,-0.0007821405050243,-0.0127644569415247,0.0081014113797633,6.369973332012359e-07,-1.4009548908694326e-06,-4.201616540885035e-06,12053,1.502313,24.153849,24.037024
0.2783100115245529,0.5041542924667348,0.0387373848857993,-0.000624334445479,-0.0121848186563202,0.0073860854771868,6.396309747495106e-07,-1.4847724283381164e-06,-4.468881365740724e-06,12054,1.442143,24.459698,24.259688
0.2338913451479536,0.4224378413017462,0.0050680097073331,-0.0004446471087545,-0.011543614733024,0.0066074194726223,6.836393916144353e-07,-1.558576256396901e-06,-4.680595837789631e-06,12055,1.446227,24.694128,24.422252
0.2057501273687396,0.2631192154228327,0.0070633807578383,-0.0002539816151418,-0.0108465135274511,0.0057777391702659,7.209392173513733e-07,-1.6539068877254048e-06,-4.959121122850299e-06,12056,1.457051,24.865548,24.584334
0.1831638135775344,0.1134274835436867,0.0088202926126643,-6.856197501047489e-05,-0.0100999803292893,0.0049126969793175,8.35658715654101e-07,-1.741800207525086e-06,-5.182852401442867e-06,12057,1.485859,24.999479,24.729084
0.1541246255172893,0.0351756519668856,-0.0168570820147009,0.0001038302662877,-0.009307999067893,0.0040238478116982,1.0509965758204011e-06,-1.797029679927705e-06,-5.264033198867941e-06,12058,1.496592,25.105436,24.793392
0.1351498501736577,-0.0362021668938337,-0.0468629603793368,0.0002643010312044,-0.0084684034586188,0.0031157078012253,1.2358562312650604e-06,-1.8473343605331253e-06,-5.343958892582844e-06,12059,1.509853,25.183395,24.7609
0.1429946885552845,-0.1272537021469456,-0.0681945159354353,0.0004153623208302,-0.0075811936173918,0.0021961082820519,1.3674122952264094e-06,-1.922813306900374e-06,-5.525329152322923e-06,12060,1.505551,25.200619,24.653088
0.1384637938692028,-0.1639418060759475,-0.0791737049793951,0.0005654110032642,-0.0066464218624489,0.0012735113841721,1.578226572042459e-06,-2.0177005323537265e-06,-5.732512372554588e-06,12061,1.462929,25.105061,24.554197
0.0464234966635348,-0.1744142295204767,-0.0943632128337957,0.0007200149007529,-0.0056738378685389,0.0003560187248262,1.8825819099563289e-06,-2.124880979028897e-06,-5.936765079841137e-06,12062,1.3403,24.874172,24.559517
-0.1273107190960413,-0.3022376932276366,-0.1863192261229553,0.0008818222658054,-0.0046858585723425,-0.0005473937269083,2.1337460963971254e-06,-2.241224834972577e-06,-6.192182340725219e-06,12063,1.161417,24.546816,24.660779
-0.2785962462041359,-0.5762495931121615,-0.3498166716699397,0.0010592746352899,-0.0037133317372944,-0.001428447877326,2.240033751629424e-06,-2.3241371905481937e-06,-6.405749404353178e-06,12064,0.999757,24.241386,24.573087
-0.3080555310592002,-0.8764384442372621,-0.4634263888437399,0.0012654638077151,-0.0028017007193961,-0.0022794230638547,2.260648943026559e-06,-2.321454031612748e-06,-6.387291544661945e-06,12065,0.852996,24.029106,23.877129
-0.2561548842533169,-1.0974376610412049,-0.5111530102354667,0.0014965619198538,-0.0019755246396097,-0.0030911135782182,2.313571872641406e-06,-2.248581592513276e-06,-6.131554029329291e-06,12066,0.824105,23.847164,22.718653
-0.3026182501211696,-1.1803146190579104,-0.5923843955392922,0.001730292213057,-0.0012368442959069,-0.0038528431881513,2.4689977325495035e-06,-2.1551106066588227e-06,-5.762046604841861e-06,12067,0.983044,23.552153,21.758827
-0.512279907339718,-1.0305815486023644,-0.697817139833808,0.0019331945957957,-0.0005870684414834,-0.0045530424053862,2.690144536078732e-06,-2.051797997561409e-06,-5.328098561335631e-06,12068,1.314011,23.048919,21.188506
-0.7078256676900847,-0.6459171736387067,-0.7568217422890111,0.002051088545463,-1.5919257783457213e-05,-0.0051784691316229,2.8180784951668847e-06,-1.9325866668673504e-06,-4.8813554068298405e-06,12069,1.715261,22.409063,20.551489
-0.728039281694617,-0.2146017717962037,-0.7965267116514316,0.002066840781719,0.0004767416520043,-0.0057147566971395,2.6992026428563062e-06,-1.8000201936190293e-06,-4.501571096472987e-06,12070,2.035213,21.737964,19.489795
-0.6284837674137489,0.0845877206534899,-0.8310120421754035,0.0020042371086174,0.0008790610155472,-0.0061458900555069,2.3575941697630323e-06,-1.6449627222711132e-06,-4.154227608961167e-06,12071,2.258551,21.152373,17.930862
-0.4649294644210075,0.2264495914928611,-0.8208772250592472,0.0018948878442052,0.0011871747859272,-0.0064525653765704,1.9650219091471283e-06,-1.459889474640952e-06,-3.739467694626696e-06,12072,2.329335,20.662939,16.169015
-0.1732222930119631,0.2778308355061589,-0.7735162878662939,0.0017983766367747,0.0014000352415002,-0.0066113192701666,1.7190818769302343e-06,-1.2734871073570042e-06,-3.2545653674484357e-06,12073,2.368096,20.172303,14.628985
0.1626190203389594,0.2841952684491824,-0.7198302863699971,0.001737240602939,0.0015214014949697,-0.006609684388926,1.788589361553264e-06,-1.1281292704193352e-06,-2.7543354296095123e-06,12074,2.506895,19.562198,13.444591
0.3307468743824842,0.2677513603235817,-0.688633840684891,0.0016919051863461,0.0015635574472971,-0.0064473795935242,2.176141772693404e-06,-1.0251351893578191e-06,-2.244238644806802e-06,12075,2.843811,18.859924,12.444582
0.3104232408404846,0.2519826107207377,-0.6950764086111727,0.0016473335856505,0.0015447266630128,-0.0061294746193459,2.637371499006149e-06,-9.359764970736656e-07,-1.7457264596214035e-06,12076,3.331382,18.131005,11.624551
0.2691766083859032,0.2261270298989122,-0.7147677939462763,0.00157320740589,0.0014927763134983,-0.0056725483746065,2.969831752033755e-06,-8.416687451779736e-07,-1.2881374966604795e-06,12077,3.756823,17.563242,10.649697
0.3086423211007356,0.2004637807259596,-0.7033804177758285,0.0014578812593424,0.0014288193567724,-0.0050974238825265,3.2476931446593363e-06,-7.153201268165204e-07,-7.55216941538996e-07,12078,4.032392,17.206395,9.495467
0.3625126087498278,0.17573190078543,-0.6229259253487107,0.0013138882732568,0.0013675074169051,-0.0044317563379544,3.608829369763136e-06,-5.201407530640914e-07,2.6296144188131277e-08,12079,4.309632,16.932283,8.445332
0.3693926510421818,0.0639674758748327,-0.4778288113412114,0.001146480408024,0.0013296971684183,-0.0037229121280833,4.082899917736817e-06,-2.5001740885848645e-07,1.0878881391164493e-06,12080,4.58445,16.628166,7.462536
0.4004469500620068,-0.1464593501442696,-0.3216744545839951,0.0009641314856684,0.0013393526329532,-0.0030417898907901,4.65480606870419e-06,7.022923818891553e-08,2.346020750601214e-06,12081,4.911698,16.302924,6.586225
0.5222205523941182,-0.3013294468521509,-0.2040586872183997,0.0007717157009631,0.0014147335525913,-0.0024280322684824,5.280818660769168e-06,4.013118348600373e-07,3.659559252693445e-06,12082,5.192826,16.107179,5.793958
0.6632082905501032,-0.3100689024900722,-0.1374970401621653,0.0005670194853229,0.0015691723903809,-0.0018899612638356,5.910841938019776e-06,6.994613480188134e-07,4.8711075418815216e-06,12083,5.301229,16.119668,4.914293
0.7154548598403433,-0.2643803669083925,-0.0747770763355439,0.0003521340892006,0.0018129693549626,-0.0014348029380928,6.542656851008497e-06,9.452372595798132e-07,5.919828706666796e-06,12084,5.243701,16.273094,3.962057
0.6823443500297046,-0.2483858099287848,0.0625408159625057,0.0001308988140639,0.0021504970553492,-0.0010527241160364,7.204349454143065e-06,1.1468800427392904e-06,6.843638637826678e-06,12085,5.164241,16.39753,3.13583
0.6116407511036721,-0.2311195092733191,0.2348206260965301,-9.147549754436828e-05,0.0025882465436533,-0.0007555579787941,7.862120964887338e-06,1.3194971466716364e-06,7.673737423693319e-06,12086,5.199136,16.359034,2.564234
0.502054866458425,-0.1808034692246806,0.3451417182916313,-0.0003064635625894,0.0031341302959898,-0.0005806243451461,8.384056156018664e-06,1.4847235226948007e-06,8.417051615152877e-06,12087,5.363959,16.248686,2.181496
0.4060165008493126,-0.1448750191961137,0.4629405410610249,-0.0005032834514139,0.0037901245082841,-0.0005602513509027,8.706855308699033e-06,1.6899984245704912e-06,9.192071864956065e-06,12088,5.179654,16.497032,1.457203
0.4527194571895818,-0.149298120616018,0.6436798735256752,-0.0006675448328324,0.004552815680565,-0.0007333710376651,8.939146084264098e-06,1.9914617054944e-06,1.0225114620487634e-05,12089,4.761932,17.011589,0.092723
0.6257046501258089,-0.1030553957059277,0.7500587202721081,-0.0008005734203677,0.0054211541577897,-0.0011101133188699,9.217951082518764e-06,2.3841765993777423e-06,1.1568594448985057e-05,12090,4.439325,17.437075,-1.528048
0.7196208785113984,0.0289093766296704,0.7233652668212005,-0.0009219956294913,0.006395031788129,-0.00166406066482,9.596970054132005e-06,2.8069012165372327e-06,1.3059290039858057e-05,12091,4.587207,17.607572,-2.784806
0.6264476708458626,0.1196557086414861,0.6273036982154676,-0.0010616869709735,0.0074704897411622,-0.002353199128755,1.0024024283831875e-05,3.215545840439274e-06,1.453161301866055e-05,12092,5.077342,17.411075,-3.518649
0.4497838784655745,0.1124522279533432,0.4601077660571471,-0.0012689437866138,0.0086403677037244,-0.0031025022405983,1.034635828449909e-05,3.585979007120577e-06,1.5833651906217263e-05,12093,5.222071,17.129159,-4.493509
0.3155494679670786,0.0839665395450376,0.2838650335335372,-0.0015557037887908,0.0098846905919401,-0.0038647641489573,1.041568320041806e-05,3.882298382174816e-06,1.6782439120201487e-05,12094,4.964269,16.971088,-6.054742
0.2651626644130418,0.0690200364555221,0.2258010600746395,-0.0018922165091429,0.0111669483794407,-0.0046215966007894,1.0153902745291778e-05,4.076257744847381e-06,1.7254988732987263e-05,12095,4.55978,16.907686,-8.128269
0.2709193346735534,0.0543048916167643,0.246566170670276,-0.0022390141735226,0.0124348777379218,-0.0053362591662755,9.533606843389656e-06,4.204400346845779e-06,1.735863096315935e-05,12096,4.169171,16.834248,-10.56597
0.2612553546655716,0.0246391789915643,0.2448313643293719,-0.002526372370441,0.0136122597695831,-0.005967156529419,8.628102544332696e-06,4.352222881171693e-06,1.740133694874902e-05,12097,3.862627,16.710137,-13.131515
0.2169546272977184,-0.0285442138415209,0.2064380013776037,-0.0027256388201491,0.014660204296931,-0.006486819197775,7.588739749520323e-06,4.545681903251542e-06,1.7535675847482553e-05,12098,3.618015,16.550691,-15.623834
0.1745758430133733,-0.0655390517556638,0.1121904130715775,-0.0028545210111828,0.0155798213441248,-0.0068788687947568,6.483138627702947e-06,4.735040199575947e-06,1.7634089124119398e-05,12099,3.465571,16.367197,-18.034395
0.1386061405551563,-0.0586271413759273,-0.0353088184226071,-0.0029272154419735,0.0163770327668891,-0.0071398459462309,5.288615081518345e-06,4.881012068413122e-06,1.755887451346154e-05,12100,3.371755,16.23084,-20.601774
0.1041773469237975,-0.0417497680974029,-0.1560304680791527,-0.0029763802467901,0.0170824802036276,-0.0072863431259847,4.02147986690486e-06,4.985358636513189e-06,1.7320292323808e-05,12101,3.291406,16.162461,-23.446038
0.0756209661711946,-0.0434521642711951,-0.1980117393382099,-0.0030152275475121,0.0177145420037917,-0.0073313471883513,2.732096362836872e-06,5.058285071106132e-06,1.697378793019436e-05,12102,3.289725,16.064702,-26.330968
0.0459592912904292,-0.0600147076340031,-0.1913267839923655,-0.0030322060915054,0.0182784573581088,-0.0072881572777849,1.4096336316537658e-06,5.087380492846292e-06,1.647795620695379e-05,12103,3.319731,15.940931,-29.182166
0.0147186234401974,-0.0687900669837182,-0.1763625815096638,-0.0030267967561848,0.0188038607792199,-0.0071925074811213,-5.0036334754034796e-09,5.052090471039681e-06,1.5743328637640333e-05,12104,3.354787,15.86508,-32.061405
-0.0163852880196717,-0.0613133398812842,-0.1571113888704098,-0.0029988644111222,0.0193396532385285,-0.0071030110192161,-1.5049154456961071e-06,4.947767536330602e-06,1.4757608842940183e-05,12105,3.343991,15.851783,-34.99521
-0.047516312979897,-0.0610930506298439,-0.1365831536959932,-0.0029484435657753,0.0199063174163978,-0.0070459728743839,-3.0162653401296044e-06,4.771657055419568e-06,1.3543141303138536e-05,12106,3.304558,15.852263,-37.997709
-0.0622642630257714,-0.0730081286178783,-0.1284150128333108,-0.0028797457471511,0.0204982043949532,-0.0070159095030969,-4.519008867730679e-06,4.525217834275257e-06,1.2111608291305276e-05,12107,3.259116,15.862393,-41.100558
-0.0576629313485801,-0.0930582351112024,-0.1397774972728996,-0.002793540828925,0.0211030052568993,-0.0070033757744926,-6.040770953534351e-06,4.230422097578791e-06,1.0518936239256887e-05,12108,3.223911,15.89215,-44.226233
-0.0728490506320711,-0.137112722932068,-0.1538290223374798,-0.0026881462291647,0.0216875866909533,-0.0069784548412438,-7.571500335337098e-06,3.913416677886968e-06,8.853886736002234e-06,12109,3.147195,15.967766,-47.382177
-0.1316944189577628,-0.1935607010531593,-0.1353918658538745,-0.0025660952674246,0.0222352584718659,-0.0069319559436556,-9.102898026442314e-06,3.5751039262616446e-06,7.126144596559045e-06,12110,3.000393,16.117845,-50.607877
-0.1994489081583305,-0.2608828595966089,-0.1513730352374,-0.0024335415809172,0.02274654099851,-0.0068780350933326,-1.0659590776271372e-05,3.1766561138914517e-06,5.202901508980494e-06,12111,2.813869,16.344581,-53.841972
-0.2440534170724249,-0.3811340954047175,-0.3378016166938332,-0.0022983384589976,0.0232083615492748,-0.0068207990273131,-1.2217002060519171e-05,2.673588711598384e-06,2.9540731698868577e-06,12112,2.739431,16.579572,-57.003349
-0.2643614052788997,-0.5058618758595498,-0.6187702344175725,-0.0021720402121494,0.0236017581585548,-0.0067648410446544,-1.3692965857772414e-05,2.0764893060354787e-06,4.502221923752253e-07,12113,2.766061,16.831381,-60.364839
-0.2420850254188282,-0.5242319844734529,-0.758718392769609,-0.0020609117638708,0.0239176937252906,-0.0067146262668465,-1.5034038816013472e-05,1.449998380203964e-06,-2.082008265284611e-06,12114,2.796937,17.11605,-64.136422
-0.1671868108285003,-0.4695110991544998,-0.7595786864501772,-0.0019654533609705,0.0241545643758653,-0.0066709922748775,-1.6215565724437744e-05,8.607375689030131e-07,-4.4264458022237865e-06,12115,2.893481,17.425058,-67.956729
-0.0723197166433279,-0.4263153470485341,-0.8177005897339275,-0.0018860645377978,0.0243161582800186,-0.0066390527780167,-1.717507202874882e-05,3.532020674676363e-07,-6.418973242609535e-06,12116,3.020044,17.646348,-71.357204
-0.0309442075048155,-0.3529161374790706,-0.952886548875452,-0.0018202411795075,0.0244163216515159,-0.0066274276661908,-1.7850224868524422e-05,-6.182923517111762e-08,-7.99786525804956e-06,12117,3.172354,17.804025,-74.216555
-0.1384569925715941,-0.2246948061180133,-1.0589977132250816,-0.0017670677440733,0.0244626771637398,-0.0066417085949896,-1.8279621873472702e-05,-4.262104442200881e-07,-9.311691353483732e-06,12118,3.229122,17.948486,-76.726437
-0.384952828527432,-0.1108581053651161,-1.0764131158431676,-0.001727517830101,0.0244574118793601,-0.0066855398655886,-1.854592057883882e-05,-8.107554085254662e-07,-1.0622098402820478e-05,12119,3.206033,18.083959,-79.224008
-0.6004341779225058,-0.0210202879672096,-0.9627324555761944,-0.0016996758658769,0.0244100803570744,-0.0067633396673099,-1.8648477072487887e-05,-1.2592286315470022e-06,-1.2068312065210772e-05,12120,3.221515,18.308682,-82.048346
-0.6324075674218967,0.0785972849485533,-0.7625907883434189,-0.0016794679843537,0.0243351077553849,-0.0068791466641535,-1.8541969896625705e-05,-1.752045204999531e-06,-1.356701094179064e-05,12121,3.312426,18.615013,-85.22024
-0.5653806220619302,0.1508150985761454,-0.5999346958215075,-0.0016654269051011,0.0242393531581681,-0.0070335819514685,-1.8189585477037404e-05,-2.22864019037048e-06,-1.490913415992402e-05,12122,3.431337,18.938904,-88.573673
-0.6200796997650783,0.164932016703763,-0.5051664701016778,-0.0016582529530923,0.0241229319548279,-0.0072233327106553,-1.7540866966861675e-05,-2.6599684917715963e-06,-1.5980340148900528e-05,12123,3.509315,19.196557,-91.877728
-0.7975173185351534,0.1625605051933148,-0.4298037818320384,-0.0016589069818358,0.0239835500507828,-0.0074410392865459,-1.6609085017627422e-05,-3.0587373113545523e-06,-1.6824286406542573e-05,12124,3.52714,19.326316,-95.054417
-0.892615332032417,0.1595337048137909,-0.3719799850247746,-0.0016698307413914,0.0238127420422247,-0.0076732121391707,-1.551144486849492e-05,-3.4174449552263024e-06,-1.7466608724867325e-05,12125,3.47561,19.331518,-98.149166
-0.8366133048887676,0.1171181781142062,-0.2944962450081457,-0.0016908003237812,0.0236207647147652,-0.0079014388634163,-1.4337188794099246e-05,-3.699973707530577e-06,-1.783410038789234e-05,12126,3.333566,19.244063,-101.242832
