AccX_processed,AccY_processed,AccZ_processed,GyrX_kalman,GyrY_kalman,GyrZ_kalman,MagX_processed,MagY_processed,MagZ_processed,PacketCounter,Roll,Pitch,Yaw
-0.6007591460382063,-0.2382931314056112,0.3153961918815021,-0.0001959461818101,0.001613519367822,0.0004894659921426,1.1574653171939493e-07,4.1783668816389696e-08,3.841544064951194e-07,11582,68.876302,74.331448,94.207231
-1.792773456788893,-0.6953045197958423,0.9317224073170544,-9.548863445758176e-05,0.0016390600677608,0.0004633922435577,9.682221138290837e-08,7.233477892336522e-08,3.7884662487766914e-07,11583,68.546487,74.266304,93.944247
-2.363003222503383,-0.9136969701257074,1.2261406010865852,4.1148541183647015e-05,0.001629033973833,0.0004480826013033,7.629627684230157e-08,1.0330447489878029e-07,3.6817584069422593e-07,11584,68.337102,74.210957,93.778969
-1.737117202360934,-0.6663178227825802,0.8971381100848909,0.0001158935985746,0.0015015743820529,0.0003492977628076,5.416872809757456e-08,1.346927567426349e-07,3.521420539447897e-07,11585,68.221442,74.175943,93.664091
-1.7723140496802192,-0.6870609501277823,0.9213940441524278,7.699260295479076e-05,0.0012953794566317,0.0002012484859406,3.043956514872734e-08,1.6649962445492898e-07,3.3074526462936014e-07,11586,68.168105,74.139229,93.599619
-1.6677031184240036,-0.656359614777779,0.870475829733506,-6.948256958984409e-05,0.001128046049951,9.788261802625366e-05,-3.0335055899177613e-08,1.8886442728607506e-07,1.905452636746953e-07,11587,68.062264,74.113473,93.457994
-1.4358012176127877,-0.5751461154334019,0.7432481675153768,-0.000296969707238,0.0010232655050345,4.004106997050494e-05,-5.6485107592464637e-08,2.3157084932317379e-07,1.7519595695299174e-07,11588,67.866236,74.100159,93.25899
-1.362658324125622,-0.5474346215143708,0.7006663484009483,-0.0005281979409969,0.0009559392477082,-3.0318243207929453e-05,-6.277166965744722e-08,3.084230864058593e-07,2.6077084194275773e-07,11589,67.665454,74.081728,93.09523
-1.184685357350661,-0.4750097733001738,0.6151606499039922,-0.0007262992797395,0.0009259956512878,-0.0001204967443012,-7.20909037085219e-08,3.9792881945340813e-07,3.508017866211889e-07,11590,67.42426,74.062194,92.876829
-1.021294725815173,-0.4239746922512773,0.5402683886839813,-0.0008954602551168,0.0009367107280645,-0.0002052974496503,-6.29965134087465e-08,4.623051457348458e-07,4.53878343896441e-07,11591,67.271143,74.051431,92.71829
-0.8745166217468242,-0.389170071028408,0.4644413363759423,-0.0010093377763451,0.0009713373098609,-0.0002759106795058,-1.3620847558253117e-08,4.803630260760636e-07,6.056796128983776e-07,11592,67.100017,74.056634,92.509624
-0.6875986524201508,-0.3260302437959695,0.3573813171705428,-0.0010299674686303,0.0010000246353289,-0.0003203369315196,2.7416490263735933e-08,4.965349960792583e-07,7.354032549882406e-07,11593,66.903959,74.081885,92.253557
-0.5269767167757349,-0.2580591788323437,0.2651464536495445,-0.0009407468836158,0.0010087213315367,-0.0003327518672426,7.761102487486889e-09,5.585426979324722e-07,7.644696076683411e-07,11594,66.739545,74.118155,91.994812
-0.3367347988978533,-0.1899182305376224,0.1747370318421037,-0.0007408333521066,0.0009983042694874,-0.0003185851861883,-4.127626316173487e-08,6.227929029524113e-07,7.170740401482694e-07,11595,66.511058,74.159723,91.684017
-0.1358774905885461,-0.1693180271007738,0.0870022738426781,-0.0004431317686412,0.0009721834154509,-0.0002792991088913,-7.809652041551722e-08,6.519495148853357e-07,6.523097935189909e-07,11596,66.173868,74.197134,91.308056
0.0415366502833395,-0.205269677368466,-0.0084566432046204,-8.44547519496244e-05,0.0009450099512387,-0.0002162466945545,-1.0720205603692697e-07,6.715290049527351e-07,5.923424922828966e-07,11597,65.907388,74.244258,90.968072
0.2120996059331469,-0.2262396149008851,-0.1146160220459796,0.0003104711111662,0.0009198556915246,-0.000133027776651,-1.083351652173881e-07,6.650354348484695e-07,5.749097701724702e-07,11598,65.836477,74.275893,90.746753
0.3865145268495293,-0.1894652414972588,-0.2125213294074696,0.0007262803212147,0.0008873127378853,-3.402942004459365e-05,-2.5479248111365125e-08,5.688535127843736e-07,6.71364460482531e-07,11599,65.991061,74.308736,90.695549
0.5564309817851139,-0.1191598818012402,-0.3019679972828285,0.0011277823844771,0.0008437906989438,7.309648839332872e-05,1.4908983279120857e-07,3.656688792533552e-07,8.792829353820119e-07,11600,66.386256,74.342189,90.838189
0.6940071393398446,-0.0393135838258098,-0.3882770886335974,0.0014641830472238,0.0007860161870314,0.0001767017553206,3.5078201793494425e-07,1.1254155578521843e-07,1.0959300042154805e-06,11601,66.974586,74.354057,91.119755
0.8136069254550569,0.0478498333980458,-0.4807369804920233,0.0017097056485804,0.0007114420117282,0.0002705129279504,5.152631357435014e-07,-1.25766303958352e-07,1.2312693880853029e-06,11602,67.666669,74.328739,91.541134
0.9441230427332704,0.1313205546128643,-0.5789139053494007,0.0018623582338003,0.0006204811714462,0.0003536189551295,6.403773257592951e-07,-3.6127703368450157e-07,1.2630937201362708e-06,11603,68.475724,74.283977,92.107904
1.064321129476195,0.2162958832714152,-0.6610272882958115,0.0019272695356723,0.0005128173404471,0.0004255477651973,7.597561302007898e-07,-6.560359649276977e-07,1.1997405126835314e-06,11604,69.5933,74.191254,92.977601
1.1578025147597228,0.3133222148405943,-0.7193238042276193,0.0019294599530377,0.0003883788747684,0.0004890317611414,8.834386373574858e-07,-1.0200949816576854e-06,1.0565920292159648e-06,11605,70.933219,74.044919,94.071275
1.2558264768428224,0.4125394267280198,-0.7721936796013968,0.0018817143459698,0.0002520419196414,0.0005445483312655,9.930007837218657e-07,-1.3885283941147296e-06,8.71513221259247e-07,11606,72.263031,73.857014,95.199042
1.3757324126421602,0.5132938201311976,-0.8260786153397381,0.0017847268844128,0.0001142435176367,0.0005900533742277,1.0673816149423576e-06,-1.683278327581256e-06,6.903062729074764e-07,11607,73.252606,73.629688,96.050558
1.4914798785237429,0.6250359825932477,-0.8758840780244954,0.0016552717424784,-9.088479538894818e-06,0.0006260996958475,1.0882015455459526e-06,-1.8566499539638883e-06,5.238803453699168e-07,11608,73.726292,73.41083,96.467076
1.5898989134132986,0.7699691954107446,-0.9211228874958772,0.0015209686890561,-9.361709732950833e-05,0.0006547809718273,1.0357515682919671e-06,-1.866436931038844e-06,3.715715122004325e-07,11609,73.714632,73.257703,96.42652
1.6854360813276728,0.9671058639413456,-0.948792119570839,0.0013945429809899,-0.0001278021388047,0.0006781402371551,8.915167377553128e-07,-1.663758683210609e-06,2.4634213430823215e-07,11610,73.300609,73.165514,96.016758
1.7726857516628791,1.1604138692071535,-0.9568435528146556,0.001276058961236,-0.0001137303395665,0.0006990348480038,6.600468554751138e-07,-1.267371121777444e-06,1.3740925324578133e-07,11611,72.67135,73.09822,95.390106
1.8460676617767968,1.265182419281226,-0.9716447869804762,0.0011621016262742,-5.489650198788716e-05,0.0007216855150433,3.866098362717301e-07,-7.980576574931034e-07,1.0851616034583611e-08,11612,71.906536,73.014242,94.677712
1.9270026486630984,1.29158403531355,-0.99877740893891,0.0010386081774191,3.701907092410704e-05,0.0007519455803457,1.242703268668522e-07,-3.7996598572038233e-07,-1.5424953153815353e-07,11613,71.059382,72.922418,93.958213
2.021652144171172,1.3019918487990874,-1.0241055241270427,0.0009039629178069,0.0001547492953893,0.0007931515369393,-1.0764384964914797e-07,-5.4635380373172575e-08,-3.637402859402785e-07,11614,70.336734,72.84443,93.415934
2.0922896445220687,1.3084158507728878,-1.044556205648973,0.0007700839859537,0.000295862135113,0.0008459864803994,-3.151697113006163e-07,2.031361688753829e-07,-5.974428547959982e-07,11615,69.862602,72.768838,93.102328
2.1021382241987894,1.29916709308644,-1.0444340192681525,0.0006458474187255,0.0004501281351363,0.0009107476905987,-4.957866301013845e-07,4.2684004021543284e-07,-7.960545628984443e-07,11616,69.607731,72.711906,92.947267
2.0740449883382577,1.2728049749337107,-1.0203384660850514,0.0005434221509347,0.000601446407647,0.0009859983059622,-6.367595959776786e-07,6.145939595479962e-07,-9.27093120421284e-07,11617,69.57376,72.678363,92.92746
2.0572363297414045,1.2374800863336235,-1.0113937049679058,0.000469765420233,0.0007425125031769,0.0010720341297588,-7.468552041569083e-07,7.648285620743169e-07,-1.0234291061200751e-06,11618,69.612121,72.673188,92.946404
2.0620998508474884,1.1960158353459065,-0.9927009861490592,0.0004244940578236,0.0008740200807496,0.0011710946788034,-8.503071839359342e-07,9.119767106476862e-07,-1.1084174227856497e-06,11619,69.759726,72.68913,93.142088
2.0632015561592,1.112860772399503,-0.8797838318683872,0.000408339417875,0.0009989592549353,0.0012845493355986,-9.526406849474348e-07,1.0677501225359206e-06,-1.1795172631624532e-06,11620,69.986392,72.720404,93.472319
2.0496086170247567,0.9886395817814392,-0.7292004313100914,0.0004200052824444,0.0011269883221628,0.0014137753013474,-1.0524242616591355e-06,1.2096006127028763e-06,-1.26218780641313e-06,11621,70.296878,72.766857,93.954288
2.04130078148403,0.8971579985436618,-0.6646435294772612,0.0004572886560694,0.0012628434450403,0.0015582152204317,-1.157499258552767e-06,1.33942527242613e-06,-1.3755434745103538e-06,11622,70.733566,72.800941,94.560867
2.0399966368548856,0.8535460754283862,-0.6354641994505996,0.0005174088525117,0.0014062193972723,0.0017146854922397,-1.2669454953608628e-06,1.4860512919642857e-06,-1.4759454800544872e-06,11623,71.308757,72.834313,95.176607
2.0214962761292843,0.8052906460290653,-0.5539835918293557,0.0005931438679112,0.0015614283085809,0.0018784824051523,-1.370977627823246e-06,1.6581293776616094e-06,-1.5241685547401198e-06,11624,71.865802,72.869926,95.689421
1.9781603805517944,0.7563245648435177,-0.4850389485320868,0.0006722555819629,0.0017351524645897,0.0020421458161089,-1.471783909013652e-06,1.8202091127901744e-06,-1.5781128688600123e-06,11625,72.300691,72.913901,96.145143
1.922586059131993,0.7311490468809824,-0.4857858675103413,0.0007493324037773,0.0019300907959765,0.0022016388784636,-1.575591360470763e-06,1.9350894400003106e-06,-1.7085438242219097e-06,11626,72.613118,72.965786,96.513294
1.877578696713796,0.7151054211358409,-0.5052395070436547,0.0008256958092429,0.0021456712748219,0.0023565910402059,-1.6563960590718952e-06,1.9845045240743997e-06,-1.8675772326660852e-06,11627,73.008537,73.020134,96.964858
1.855211869971984,0.7161175206339736,-0.510358007982475,0.0009031925032074,0.0023794715342473,0.0025062317661343,-1.6740696137034397e-06,1.951859061107794e-06,-1.96416264540957e-06,11628,73.492197,73.091577,97.441302
1.8377231804588876,0.7333010144722935,-0.5141560717051619,0.0009876568401987,0.0026252866620265,0.0026511766425786,-1.6396515251576536e-06,1.863966177637033e-06,-1.990673789793288e-06,11629,74.138929,73.187195,97.987899
1.802230318110564,0.7257184821952429,-0.5164258402300764,0.001080873928131,0.002879076749142,0.0027893659223657,-1.5985379709644577e-06,1.78769823969964e-06,-1.981759425431857e-06,11630,74.895625,73.302288,98.564419
1.7409837447901555,0.7015787527961967,-0.5123328468062455,0.0011799809800686,0.0031387103438533,0.0029153953846492,-1.5684350389823218e-06,1.7529805005777698e-06,-1.948011615361638e-06,11631,75.671487,73.419601,99.153189
1.6745262293773773,0.6926905401788652,-0.5126454469657546,0.0012841407867946,0.0033990447731417,0.0030235824004984,-1.5536882842757642e-06,1.7517257732964824e-06,-1.915195500243251e-06,11632,76.389104,73.538048,99.771208
1.6458573151371274,0.6763736449239688,-0.5442760715555092,0.001392461878201,0.0036527776604368,0.0031064329620082,-1.5721859458426658e-06,1.7773222672674889e-06,-1.9393886473021337e-06,11633,77.149288,73.66279,100.457651
1.648389921326623,0.6329610559704999,-0.6153600977763161,0.0015038868332874,0.0038951946412939,0.003159300230377,-1.6139638141848742e-06,1.803555996497525e-06,-2.022946526887464e-06,11634,78.109212,73.7961,101.33445
1.6083161975484108,0.5857742658228904,-0.6898657791175958,0.0016178638653854,0.0041237262248245,0.0031809174587078,-1.6101176260950848e-06,1.7536231581217826e-06,-2.0781143681856617e-06,11635,79.388817,73.943621,102.47015
1.4964058087447203,0.5464389227866099,-0.7374106453947831,0.0017328582751614,0.0043360543677109,0.0031700635454324,-1.4890992828295743e-06,1.5528895598267676e-06,-2.0110442096077445e-06,11636,80.93001,74.128565,103.831789
1.3812356371333538,0.5021142692452086,-0.7531114800422682,0.0018463966271335,0.0045313290459763,0.0031271535376649,-1.238232238959042e-06,1.210131875297913e-06,-1.777683938841552e-06,11637,82.780804,74.351859,105.444172
1.2902500893292923,0.4453868788535286,-0.7318066297917936,0.001956402953974,0.0047056514377853,0.003051995322324,-8.864229830004777e-07,7.909931254390317e-07,-1.3719402493702353e-06,11638,84.991395,74.599486,107.312758
1.146462472602249,0.3809749706662365,-0.684806217916612,0.0020609002408394,0.0048515958092725,0.0029436573502766,-4.836346059763204e-07,3.467252671675577e-07,-8.66318522610763e-07,11639,87.440607,74.86686,109.345776
0.9406440269356828,0.3243183246571608,-0.6394288362991478,0.0021572419196754,0.0049609652489208,0.0028031320576086,-1.1115542584183285e-07,-6.892383440553531e-08,-4.127792967618639e-07,11640,89.917713,75.147205,111.477175
0.769053808941431,0.2844707658770095,-0.5995865848237318,0.002242190254378,0.0050231041987716,0.0026330917155128,1.6170798859353032e-07,-3.780743404999188e-07,-8.97840012562059e-08,11641,92.293013,75.40959,113.622985
0.6629932041785247,0.2524615358286878,-0.5575565014498732,0.0023165201005505,0.0050302802728885,0.0024354033162201,3.406989538066829e-07,-5.461550229582894e-07,1.7211354442153538e-07,11642,94.470408,75.661421,115.617973
0.5657691955041766,0.2191005794041502,-0.5118154747181747,0.0023856348102889,0.0049780577746665,0.0022116047885423,4.746301195947414e-07,-6.153488960694292e-07,4.477280554047589e-07,11643,96.425453,75.901358,117.436751
0.4565733857398651,0.1841605387494624,-0.459852590167187,0.0024580974145785,0.0048613259121532,0.0019643196252716,5.909593862982212e-07,-6.378120144067873e-07,7.369015196285553e-07,11644,98.093215,76.137986,119.01112
0.3637406233458616,0.1465363085273974,-0.4133745680893548,0.0025479863127648,0.0046758486757469,0.0016970256568724,7.236766671706814e-07,-6.471875903328964e-07,1.0892495102325617e-06,11645,99.656442,76.384474,120.451075
0.2814766587882005,0.1086193362502018,-0.3740820402979994,0.0026572014685832,0.0044152033022015,0.0014169441184088,9.38099998919822e-07,-7.101629173693666e-07,1.5966994345153655e-06,11646,101.196119,76.66384,121.732752
0.1437222862062233,0.0998302169344152,-0.3366448687894658,0.0027740041223712,0.004070104159291,0.0011361091274571,1.2461119198471888e-06,-9.169883807814372e-07,2.165482066361205e-06,11647,102.658366,76.969573,122.887112
-0.0658696025100235,0.142541031536049,-0.3078507772228533,0.0028822990790118,0.0036307758469819,0.0008710516753396,1.562271668462637e-06,-1.2591247028539549e-06,2.569492251896506e-06,11648,104.370356,77.269996,124.108332
-0.1870903622075049,0.2090962588907775,-0.2611319570635565,0.0029548667089244,0.0030856504455097,0.0006451851616426,1.7980089215215955e-06,-1.5927669621993475e-06,2.7641255645154343e-06,11649,106.773936,77.427839,125.767157
-0.2023749206891563,0.3337512086589602,-0.2457025361525145,0.0029798670891313,0.002441291843633,0.0004712126218638,1.9277247029286008e-06,-1.7841184638225865e-06,2.8617096774707656e-06,11650,109.086122,77.316973,127.300893
-0.451886629659447,0.641194647831041,-0.4218392687305662,0.0029625817488641,0.0017259618970676,0.0003503523383621,1.931573950197945e-06,-1.778049276181067e-06,2.8790009656802554e-06,11651,109.479804,77.12494,127.321444
-0.9692220200283672,1.0801055298919389,-0.7850220329291253,0.0029075598158859,0.000982679718795,0.0002824635566023,1.7751266232367098e-06,-1.544945365439525e-06,2.7604290991760554e-06,11652,108.157537,77.089865,125.874929
-1.3017535929731832,1.413397629396835,-1.135961679555879,0.0028268169994665,0.0002800810646564,0.0002603334494304,1.5024218552775102e-06,-1.1370489565438168e-06,2.558159706379351e-06,11653,105.930586,77.174944,123.371003
-1.2762053261877324,1.5736638350136958,-1.3687512773360972,0.0027253073365084,-0.0003394102458619,0.0002802771693468,1.238708742339383e-06,-7.388061157545479e-07,2.3673443205932738e-06,11654,103.812047,77.193604,120.942689
-1.0806031868776125,1.65670421287049,-1.5416947105166554,0.0025991903030992,-0.0008602493385172,0.0003423987704705,1.0527351114258612e-06,-5.233069212624487e-07,2.14236351317674e-06,11655,102.592759,77.011311,119.432096
-0.8122441210042902,1.6694493114466726,-1.701636949114635,0.0024495940436723,-0.0012581341433114,0.0004398349002364,9.048505840400344e-07,-4.766364018041463e-07,1.7958693845825555e-06,11656,101.932247,76.637605,118.503944
-0.5631443442302546,1.5824511000156356,-1.7924568752198344,0.0022788538263534,-0.0015130424232441,0.0005602353489477,7.247802373162435e-07,-4.2720476065084934e-07,1.370528541583449e-06,11657,101.20071,76.232877,117.516664
-0.4966169365989715,1.4404851619133954,-1.7405961418386349,0.0020884696360956,-0.0016127120856831,0.0006971634171058,4.877855372164059e-07,-2.674064780056546e-07,9.439297994915208e-07,11658,100.164219,75.929312,116.366308
-0.5878782888190288,1.2885676107914916,-1.57261532093297,0.0018806813748574,-0.0015514586775883,0.0008489950252604,2.285981873906361e-07,-5.783407897414725e-08,5.272194426915788e-07,11659,99.148735,75.732732,115.2728
-0.6941308953143673,1.1349988610246524,-1.3897197478589904,0.0016569092528362,-0.0013408114071706,0.0010139269941765,4.51680297329834e-10,1.011487058769833e-07,1.2706782386332298e-07,11660,98.540219,75.572556,114.612203
-0.7477773461229389,1.0011650528872158,-1.2410446626948857,0.0014177079043749,-0.0010140949195036,0.0011926857491243,-1.5759732140403922e-07,1.614889569871108e-07,-2.168821295793728e-07,11661,98.522861,75.405835,114.477134
-0.7152939190229799,0.8739714063675411,-1.1132278508723894,0.0011669887827483,-0.0005983582501547,0.0013781211209391,-2.252935461811376e-07,9.393716935242176e-08,-4.858736953632496e-07,11662,99.005028,75.201607,114.877341
-0.629107124922614,0.636373926838607,-0.9194174735172548,0.0009122978854179,-0.0001189504090496,0.0015536836398432,-2.0781585052746327e-07,-1.1184997104669286e-07,-7.047650520197664e-07,11663,99.805485,74.978769,115.692932
-0.5435628117492647,0.2238730917648413,-0.5522989288425117,0.0006634243798843,0.0003777760040513,0.0016991978145191,-1.386868771597873e-07,-3.8865220054338033e-07,-8.757000746790422e-07,11664,100.684317,74.793942,116.71636
-0.4562425592564426,-0.185768355263695,-0.1077990343168533,0.0004342551066054,0.0008253449839831,0.0017863396426233,-7.298872756433036e-08,-6.0400275550102e-07,-9.732273514974322e-07,11665,101.647152,74.675517,117.810441
-0.3870787225476221,-0.3776279681201321,0.2273505887519324,0.0002323659202818,0.0011887304382669,0.0018051542911889,-3.879372583367242e-08,-6.930936014489761e-07,-9.87540627435378e-07,11666,102.741756,74.620479,118.893845
-0.3293645714962356,-0.4037472506111773,0.4380591328754902,5.845666471087594e-05,0.0014642438589125,0.0017667012231836,1.0992773128544066e-08,-7.289562632753212e-07,-8.881071721653425e-07,11667,103.822859,74.634726,119.812165
-0.2241570674664764,-0.4338380595506688,0.5804998172027173,-8.738895193658328e-05,0.001655060001705,0.0016884779095078,1.2707602334046338e-07,-8.050291353045499e-07,-6.642051104472866e-07,11668,104.702935,74.710327,120.479665
-0.0926766892592149,-0.4897189607225104,0.6862731281785845,-0.0002090838352543,0.0017875851252705,0.0016047561205924,2.801740190395307e-07,-9.294371221440967e-07,-4.099251016158734e-07,11669,105.394188,74.824857,120.998042
-0.032673262174153,-0.5482735488006831,0.7829234533669984,-0.0003087636399545,0.0018734506642292,0.0015274606351937,4.238075886089005e-07,-1.0797882289434408e-06,-2.214799407529661e-07,11670,106.03358,74.924407,121.546767
-0.0655704660982049,-0.6316832528848041,0.8611562192661176,-0.0003866216375297,0.0019090354946585,0.0014436442401399,5.684000186549324e-07,-1.2661814274356658e-06,-8.126082841699944e-08,11671,106.714683,75.004477,122.199953
-0.0834165979422097,-0.6664044749261948,0.93418706314042,-0.0004470514706386,0.0019096513983653,0.0013423485375292,7.335992798201696e-07,-1.4934703532133412e-06,5.934241258886375e-08,11672,107.514307,75.075104,123.028559
-0.0670867336961293,-0.6624303403145959,1.0383643685758406,-0.0004979259368037,0.0019030217241168,0.001202736113842,8.962146618981371e-07,-1.7327773277135962e-06,1.782259140586314e-07,11673,108.400855,75.14075,123.980144
-0.1751372358477663,-0.8614831795921023,1.14870085969833,-0.0005419806222227,0.0018980240922493,0.0010155683766689,1.0309536118146758e-06,-1.963282958665529e-06,2.381548766711533e-07,11674,109.416624,75.221052,125.104921
-0.4151766655016916,-1.2758178542288283,1.2487518425891126,-0.0005771592546799,0.001887106068964,0.00078629655233,1.1459857262742178e-06,-2.179958495253291e-06,2.709486527209824e-07,11675,110.77997,75.269447,126.637852
-0.5614038436187956,-1.584148120846216,1.35072037832516,-0.0006002691121055,0.0018567983873376,0.0005155709863014,1.2376299286838736e-06,-2.3465532412887165e-06,3.129179286776411e-07,11676,112.331161,75.200617,128.342012
-0.5318440382159861,-1.67246248456407,1.423784473858393,-0.0006044067956611,0.0017784755793377,0.0002056527234521,1.279007794642771e-06,-2.4271022426676893e-06,3.2978231931361853e-07,11677,113.427788,75.126825,129.70193
-0.4768258582374889,-1.7082665140602402,1.4609100267954984,-0.0005855180405081,0.0016350956443515,-0.0001481768739492,1.289885614964186e-06,-2.4552916083366914e-06,3.239579516522085e-07,11678,113.932973,75.267088,130.525882
-0.4634157091467958,-1.7516512442724357,1.4877677957971174,-0.0005425397152017,0.0014212752710355,-0.0005608159213478,1.3360439660253225e-06,-2.495177157662365e-06,3.925260529077755e-07,11679,114.284131,75.599053,131.039143
-0.4409613641125562,-1.7824024364968156,1.4741352376,-0.0004718893322661,0.0011217845425986,-0.0010495379022623,1.4480149782485454e-06,-2.5761642601198776e-06,5.844677671453511e-07,11680,114.622791,75.956191,131.369619
-0.4154725220479038,-1.8507189800346409,1.410398753418422,-0.0003687944006881,0.0007168279853127,-0.0016385013672224,1.5966843218067414e-06,-2.6868937091841e-06,8.388233434453202e-07,11681,115.062811,76.154344,131.710511
-0.3989261377597716,-1.8980960766735584,1.3477342896174536,-0.0002318696127234,0.0002075047167792,-0.0023365565859067,1.7292121535807934e-06,-2.792378923627252e-06,1.0618090598222304e-06,11682,115.263454,76.180296,131.759901
-0.3788014334003564,-1.8452631466069265,1.2964192636249123,-6.296910619092689e-05,-0.0003831809813655,-0.0031347007306232,1.797980443921698e-06,-2.8509885223907075e-06,1.178179245011524e-06,11683,114.692117,76.146941,130.961311
-0.3383239477270364,-1.7897283589623656,1.2408971304879066,0.0001337229408368,-0.0010156983518089,-0.0040190570916033,1.7572671992015026e-06,-2.798853790713077e-06,1.1421492655069517e-06,11684,113.02789,76.150182,129.070216
-0.2625529773663345,-1.8128915375075605,1.1565666056113284,0.0003498952454842,-0.0016222975504997,-0.0049621792035033,1.5787846817810392e-06,-2.588936650698062e-06,9.336127539311672e-07,11685,110.310136,76.205041,126.172917
-0.1659046682384506,-1.842542767842323,1.0008953354578756,0.0005763581985952,-0.0021619231697996,-0.0059334334553821,1.2958679374716942e-06,-2.264243367911117e-06,5.845888563629319e-07,11686,106.810795,76.248477,122.502399
-0.0335751002475699,-1.7821210236659089,0.7981356033096119,0.0008020663450286,-0.0026201586449151,-0.0068968575226075,9.619901175611728e-07,-1.8783402770401023e-06,1.7049286618316117e-07,11687,102.795554,76.238894,118.264282
0.0960054285036105,-1.6573256163968342,0.6173222303227226,0.0010096904719624,-0.002971037027536,-0.0077944038858122,5.854631253915906e-07,-1.41356356778734e-06,-2.617894747181338e-07,11688,98.427187,76.17606,113.658549
0.1310850786874512,-1.555210548055527,0.4861739464055578,0.0011745911671376,-0.003189933758471,-0.0085426553120829,1.7972450146646178e-07,-8.599320974865165e-07,-6.585934110784285e-07,11689,93.855888,76.086545,108.804437
0.1818293215464868,-1.4839728904018663,0.3985601322370217,0.0012848567179477,-0.0032698101749379,-0.0090947779695231,-1.9049431719662718e-07,-2.737817322507977e-07,-9.10794870205951e-07,11690,89.273646,75.972155,103.913004
0.3903126375572868,-1.400280554747531,0.3324165419640954,0.0013418953362253,-0.0032211391836766,-0.0094408588226072,-4.7610033660694404e-07,2.942354362454015e-07,-9.490372584006448e-07,11691,84.886484,75.839989,99.101547
0.6051808533973146,-1.2813367732790268,0.2721612149633893,0.0013503865190166,-0.0030774668181057,-0.0095752563477134,-7.181086277337573e-07,8.970483609301554e-07,-8.173713965295358e-07,11692,80.708081,75.682825,94.327511
0.6857122359155208,-1.1526902754211823,0.2303948259427601,0.0013250668737533,-0.0029055544927345,-0.0095154914765922,-1.0070868826994285e-06,1.6340054175982746e-06,-6.31466209306655e-07,11693,76.429512,75.48601,89.457721
0.7448729718681166,-1.045934610817119,0.212421166883725,0.0012781827512506,-0.0027291472749223,-0.0092598462445065,-1.3845188982025328e-06,2.5064355472811338e-06,-5.045072104048303e-07,11694,71.755819,75.228316,84.397353
0.8080192802686893,-0.9484720911269195,0.1966544952141494,0.0012200964620177,-0.0025279820561001,-0.0087850865358266,-1.8495217939940332e-06,3.4540309000345434e-06,-5.197372588634578e-07,11695,67.120044,74.875655,79.540087
0.7736406530527951,-0.8517912020073253,0.1763037868543794,0.0011729818289958,-0.002283002810209,-0.0080834508837215,-2.3940666556836915e-06,4.430620141943041e-06,-7.185823456764617e-07,11696,63.039728,74.450425,75.258667
0.6806503756609678,-0.7637287667551004,0.1631207913064132,0.0011703463315021,-0.0019544347591083,-0.0071532194751365,-2.945699978930949e-06,5.330894353445658e-06,-1.0417529816713074e-06,11697,59.7432,73.997628,71.743842
0.5996016871668944,-0.6828225266310441,0.1536928567032136,0.001225798407693,-0.001531960267258,-0.0059976582392269,-3.377887505079396e-06,6.005159024887918e-06,-1.3418187625354583e-06,11698,57.004467,73.569274,68.881913
0.5398793941382944,-0.6241966650352111,0.1372414948915986,0.001332836862576,-0.0010409504977989,-0.0046312577903034,-3.6087318620087376e-06,6.385256762578403e-06,-1.481613774828401e-06,11699,54.856064,73.220442,66.69993
0.4682472695359063,-0.5831944670257508,0.1169501000878145,0.0014789539989754,-0.0005028691270658,-0.003076854017012,-3.625095734132874e-06,6.48855953625847e-06,-1.395079331101178e-06,11700,53.587659,72.977899,65.322753
0.2616919970411153,-0.4932286122108318,0.1238723655161332,0.0016351744001059,4.849373539856446e-05,-0.0013701918688908,-3.44964067465202e-06,6.327783355636106e-06,-1.1248500864338973e-06,11701,53.420156,72.869105,64.91579
-0.0812773585557524,-0.3464277407087582,0.1976606970546041,0.0017767702331512,0.0005859044602132,0.0004299491265971,-3.125867853820021e-06,5.899537919439226e-06,-7.994356338971371e-07,11702,54.224624,72.895642,65.395345
-0.4004354826075493,-0.2203243661096845,0.3260763581624942,0.0018820354232536,0.0010917136136227,0.0022348453198368,-2.7189493265562977e-06,5.259511528386074e-06,-5.272011162556927e-07,11703,55.698957,73.02156,66.56436
-0.6771627204771309,-0.135364520886035,0.4365268615482894,0.0019103549375857,0.0015341823816384,0.0039169217296209,-2.279353899828153e-06,4.499738044396054e-06,-3.2216414630331665e-07,11704,57.679439,73.193331,68.254463
-0.9404000155120082,-0.0759642494370131,0.4658629326687172,0.0018030258066352,0.0018709353125718,0.0052944586144086,-1.795403933490588e-06,3.641908277257339e-06,-1.2545206508133433e-07,11705,60.199208,73.396285,70.501053
-1.052994598081601,-0.00250693483474,0.4296656353246227,0.0015332611614526,0.0020793587714533,0.0062750078824699,-1.2414872637156835e-06,2.675570003784832e-06,1.1365333582833229e-07,11706,63.230231,73.63098,73.347494
-0.990963159505154,0.1617233339338382,0.3965350284460375,0.001106557437159,0.0021557981141472,0.0068612772549552,-6.379282839504106e-07,1.6516505836844922e-06,4.104206419816325e-07,11707,66.662372,73.904721,76.711542
-0.9606811669956066,0.4119208489881496,0.3898501981577492,0.0005381536631412,0.0021045572010422,0.0070727854192361,-2.7854104485317823e-08,6.472392888494742e-07,7.564877700438384e-07,11708,70.163393,74.173895,80.174424
-1.0309327741008565,0.7532397323939019,0.3823971203130015,-0.0001301736841891,0.0019480943345457,0.0069935973602316,5.261653726443249e-07,-2.6528267932845485e-07,1.076449480728989e-06,11709,73.54696,74.409469,83.391017
-1.0749699747393398,1.2022509681355151,0.3702155695463681,-0.0008633610101518,0.001706804473818,0.0066863628056296,9.223378547085444e-07,-9.667636246686651e-07,1.2444676791720248e-06,11710,76.431364,74.548393,85.983823
-1.0369865392943454,1.5669212529658587,0.3666990375286919,-0.0016310364025616,0.0014013975987012,0.0061936053169723,1.07595253407644e-06,-1.3305891392589974e-06,1.1917179025620295e-06,11711,78.149312,74.591255,87.696137
-0.9509435428903358,1.6882936929170262,0.3653541685250373,-0.002372250341774,0.0010753826717307,0.0056300710749804,1.0121778981693525e-06,-1.3697242959648454e-06,9.675212787227691e-07,11712,78.624509,74.630027,88.719563
-0.8422839405278285,1.7350909755360742,0.3551786336134473,-0.0029967149810469,0.0007958558220177,0.0051760470712382,8.6124580017878e-07,-1.2435032786504598e-06,7.185362182976716e-07,11713,78.623443,74.699852,89.584257
-0.7097841722850815,1.844799990878835,0.3337142192744773,-0.0034592230896046,0.0005953060244083,0.0049153740662326,7.27955563653609e-07,-1.088585765599413e-06,5.537057623024771e-07,11714,78.933136,74.784116,90.672718
-0.5743606905890863,1.8825489674429183,0.3020903762719393,-0.0037589193077758,0.0004718976367022,0.0048394490678554,6.1996231823293e-07,-9.52240011351217e-07,4.340712490140894e-07,11715,79.660387,74.86078,91.933075
-0.4910264822328146,1.78269927476503,0.2625895659437711,-0.0039043251116424,0.0004184903967413,0.0049212429733282,5.301102025662584e-07,-8.82302945634216e-07,2.790890568085147e-07,11716,80.496031,74.920009,93.211231
-0.3954139925899936,1.6299752127190663,0.2242752166326249,-0.0039365265329054,0.0004048548294912,0.0050664339912411,4.672723265749797e-07,-9.167829642926312e-07,6.49338610164779e-08,11717,81.230304,74.946619,94.473224
-0.1202954156069692,1.4623487464686304,0.2071954248261661,-0.0038759703365407,0.0004191971445686,0.005233459761939,4.014027876642046e-07,-9.951483911509e-07,-2.113149845530053e-07,11718,81.812004,74.948512,95.750757
0.2756012227313968,1.3039831484633044,0.2115635881507241,-0.0037217278699479,0.0004698913477755,0.0054371798088385,3.094857515386192e-07,-1.0342593432795846e-06,-5.081879291129566e-07,11719,82.338077,74.962785,97.082338
0.5091536204134518,1.1947200912310565,0.2047703387499362,-0.0034994657479537,0.0005495780642633,0.0056469016804482,2.391510557601548e-07,-1.0388679739426711e-06,-7.034760330357551e-07,11720,83.000252,74.996821,98.520587
0.4958754747929872,1.130273907981761,0.1734139249014049,-0.0032523115788397,0.0006440284749657,0.0058113489871433,2.416467862162488e-07,-1.0483120779324264e-06,-7.038258984155216e-07,11721,83.909925,75.035998,100.109292
0.4104545969995629,1.0311666504596406,0.1380317715515119,-0.0029994401906341,0.0007457237838405,0.0059052560297761,3.00902700438674e-07,-1.0799891659684748e-06,-5.771726701058022e-07,11722,85.093066,75.079067,101.876924
0.3579590320818051,0.8416722582627418,0.1132254268809696,-0.0027399762080852,0.0008499427851306,0.0059194704909478,3.9120884141044506e-07,-1.1756904985409325e-06,-4.567968017962607e-07,11723,86.485857,75.129198,103.795889
0.3114567727166315,0.6163974201011241,0.120964424701587,-0.0024671670918186,0.0009536086649188,0.0058547645156935,5.443780792814715e-07,-1.4109015785523971e-06,-3.55770122631803e-07,11724,88.080811,75.192779,105.854328
0.2649749233733077,0.3973300686164037,0.1957663041858604,-0.0021569326084056,0.0010577619339411,0.0057329753133742,7.9310239529052e-07,-1.8195690927237029e-06,-2.236066613872839e-07,11725,90.014326,75.273716,108.198269
0.2204764645334289,0.1929969980782297,0.3114534572807706,-0.0018051507187694,0.0011508317186527,0.0055430435575929,1.1106511619057605e-06,-2.3554243516663327e-06,-6.991835132988175e-08,11726,92.302484,75.340542,110.815774
0.151978054623694,0.0224755808504416,0.4035604748060847,-0.001429280396176,0.001206995340403,0.0052386185811858,1.457134431835997e-06,-2.939670550212105e-06,1.0147916303202638e-07,11727,94.857387,75.386296,113.6166
0.0253009416948306,-0.1517755010131782,0.4754520175297346,-0.0010416423864736,0.0011939477776602,0.0047701617574792,1.8155306922122453e-06,-3.4970902713305435e-06,3.491017828507194e-07,11728,97.391568,75.403869,116.35522
-0.2355225670025286,-0.3513865937635438,0.5465050392176187,-0.0006595297879971,0.001065863378019,0.0040677860296809,2.1513561711293697e-06,-3.943730510244235e-06,6.919563448463987e-07,11729,99.666769,75.396506,118.818283
-0.6487559350588347,-0.4930250479893716,0.5825610535684089,-0.000292094972593,0.0008004354979065,0.0030982269306316,2.4194755018412903e-06,-4.2349761951186255e-06,1.0564208239456437e-06,11730,101.570974,75.364751,120.926592
-1.0234408912141577,-0.510269181500288,0.5551354001485689,6.309678357674798e-05,0.0004016422319194,0.0018713922707669,2.6489860394307614e-06,-4.456320843051513e-06,1.3991785092363298e-06,11731,102.973858,75.35469,122.545874
-1.1228499185411585,-0.4678196610764473,0.4771438225794883,0.0004068670028114,-0.0001222883682173,0.0004024581563251,2.9231102513806435e-06,-4.752908731201912e-06,1.7561623438845196e-06,11732,103.830143,75.43446,123.554999
-1.0140557097650087,-0.4896699991816719,0.4240238605952545,0.000743368311329,-0.0007460052307204,-0.0012675899539007,3.230410718996013e-06,-5.1291933522794645e-06,2.0939171054446687e-06,11733,104.533809,75.550525,124.215784
-1.005433088227044,-0.6099175849615475,0.4057079666006004,0.0010788184521734,-0.0014459532930603,-0.0030951659316535,3.4401242968072283e-06,-5.416586260686683e-06,2.2785384845226677e-06,11734,104.892791,75.523984,124.266277
-1.1762556065313583,-0.7388875674466064,0.2254400310308366,0.0014211485440349,-0.002199421431078,-0.0050321502766376,3.4474393839987845e-06,-5.444793436171795e-06,2.2501298024971645e-06,11735,104.154068,75.332563,123.181035
-1.3240992711510646,-0.773689528642947,-0.1849431187419122,0.0017860530156875,-0.0029607206518704,-0.0069902408241917,3.2417020752044774e-06,-5.1395741223096446e-06,2.08129656133228e-06,11736,101.616814,75.185305,120.510603
-1.3116972735179655,-0.6806082283541035,-0.532706320572373,0.0021982965865811,-0.0036606659983877,-0.008837122998573,2.844565347830062e-06,-4.4807601937423815e-06,1.8583871851236607e-06,11737,97.187144,75.234291,116.163969
-1.1263323277263937,-0.4774010722215597,-0.6329842838302073,0.0026602089610856,-0.0042631059266639,-0.0104939654731515,2.29965954134465e-06,-3.525770084592048e-06,1.6221602145988563e-06,11738,91.431722,75.35813,110.3237
-0.8132255313202758,-0.2259748135914636,-0.6860757071774994,0.0031497013077572,-0.0047641627566738,-0.0119332407345119,1.7205672530104433e-06,-2.477571514254513e-06,1.4153381961400674e-06,11739,85.400969,75.333716,103.770762
-0.5208649890087526,-0.0353286910089025,-0.8448941862300954,0.003634197424193,-0.0051640442288103,-0.0131260432102266,1.2205163334857038e-06,-1.5582059331671543e-06,1.257639753258628e-06,11740,79.939093,75.027704,97.342606
-0.3285194223949333,0.0084796922137565,-1.0162384090794565,0.0040582213352664,-0.005483829762891,-0.0140686274876987,7.732849221311477e-07,-7.908025981446993e-07,1.047782569961715e-06,11741,75.037137,74.401464,91.379708
-0.0761454053575991,-0.0713786752300896,-1.1485087125252718,0.0043896517861301,-0.0057247262434963,-0.0147425972347108,2.576354032276012e-07,-2.507128850345417e-08,6.515044204176893e-07,11742,70.358855,73.558471,85.857892
0.2945628234411105,-0.1493078558908095,-1.252696157858025,0.0046210500337707,-0.0058656665044248,-0.0151120360030097,-3.813524167201213e-07,8.666926166303577e-07,8.76580484393445e-08,11743,65.803957,72.599782,80.699388
0.5552874876689504,-0.1419514437682176,-1.2897345979094692,0.0047361178097862,-0.0058969770595855,-0.0151659567755899,-1.0973375252205817e-06,1.8819453578281052e-06,-5.217325035336493e-07,11744,61.590499,71.600564,75.982598
0.5901093822388084,-0.0895891964414394,-1.2413590705715063,0.0047214023561887,-0.0058103956701536,-0.0149116376520826,-1.799987965579335e-06,2.9030216273398955e-06,-1.0890856908027251e-06,11745,57.842369,70.540672,71.790939
0.5325198135048023,-0.0354597425579591,-1.1453150801672096,0.0045662151839515,-0.0056056207083213,-0.0143418955773026,-2.4156942155713693e-06,3.825171241268233e-06,-1.5500656818276995e-06,11746,54.656905,69.473462,68.165476
0.4914575111645728,0.0096834696386467,-1.0632494829350354,0.0042602998748288,-0.0052958257085602,-0.0134406283392135,-2.918623871088279e-06,4.634762581576754e-06,-1.846939433888803e-06,11747,52.154666,68.443556,65.124847
0.454490982818621,0.0026296153669582,-0.998936915355788,0.0038036626055736,-0.0048998024352996,-0.0121967671743779,-3.309593391308746e-06,5.317936515311215e-06,-2.0021520288286148e-06,11748,50.342953,67.488938,62.626079
0.4100271549324712,-0.0623994634722216,-0.8860864519622282,0.0032079379413776,-0.0044477139638621,-0.0105986944889666,-3.616514605868585e-06,5.845804049772692e-06,-2.13703403408246e-06,11749,49.078666,66.65202,60.631502
0.3550212641704404,-0.1189807979716144,-0.7141613903508297,0.0024919173018389,-0.0039510138267173,-0.008669003016714,-3.910418379020144e-06,6.28472501809952e-06,-2.357408082683948e-06,11750,48.100699,65.955865,59.081468
0.2428762992381117,-0.1351386365997142,-0.5600300920628026,0.0016866162861013,-0.0034000735524423,-0.0064725570275485,-4.2559188262995656e-06,6.7620240922344e-06,-2.662962686599031e-06,11751,47.20861,65.372051,57.976819
0.083233305971644,-0.1380348003235378,-0.4709005129190927,0.0008438546838972,-0.0027828542679175,-0.0041044415547654,-4.625989173089602e-06,7.272766460641827e-06,-2.985338264918062e-06,11752,46.285582,64.91047,57.270226
-0.0449062171577557,-0.1383050370925013,-0.3906161857548729,4.23015422972052e-05,-0.0020746041423816,-0.0017107502774526,-4.90696210277872e-06,7.639991233853862e-06,-3.25661309029254e-06,11753,45.469144,64.625051,56.971798
-0.1029282113640216,-0.1215970833146373,-0.2389921854725263,-0.0006786819228019,-0.0012720089805896,0.000620800570059,-5.014590279019701e-06,7.725955770211603e-06,-3.432101581593584e-06,11754,45.134817,64.569129,57.186957
-0.1132794409427061,-0.0900472286650893,-0.0339643077375161,-0.0013205487051464,-0.0003967917440924,0.002863367769072,-4.931170379590154e-06,7.5173439298971295e-06,-3.478984188581739e-06,11755,45.369123,64.732982,57.84787
-0.1163303022680758,-0.0662515708010394,0.1335972539741298,-0.001888763408161,0.0005275084521891,0.0049789995946182,-4.631635129218876e-06,6.982306421009543e-06,-3.3720140989425547e-06,11756,46.137684,65.120794,58.962422
-0.1383267813468436,-0.0656226081848208,0.2453275239996242,-0.0024133910966307,0.0014636906395583,0.0069484248988425,-4.10075007002851e-06,6.086365684053789e-06,-3.116454503995841e-06,11757,47.496267,65.710776,60.658375
-0.239151130681919,-0.071752077860581,0.3619697133250186,-0.0029048779416052,0.0023762472706741,0.0087296186432677,-3.4032323814341026e-06,4.940624205634793e-06,-2.7388594692137534e-06,11758,49.707308,66.524921,63.197267
-0.490223833592128,-0.0438172852616855,0.4759983947496056,-0.0033515434168166,0.0032313114164793,0.0102497511650297,-2.635567014368748e-06,3.732547391872643e-06,-2.2493440245148675e-06,11759,52.451585,67.487963,66.408866
-0.8081953086677217,0.0249209994407502,0.533044634756922,-0.0037591661938143,0.0039763630060678,0.0114470376007501,-1.8528207792451715e-06,2.558015371427685e-06,-1.6712205884145895e-06,11760,55.245952,68.52057,69.899701
-0.9664389950299574,0.0754584757500396,0.5646603916718899,-0.0041413947897251,0.004540150056984,0.0122578756625757,-1.0962759240953894e-06,1.4532769805908714e-06,-1.074676048782563e-06,11761,57.93502,69.565707,73.280011
-0.841884256096761,0.0762938184908489,0.6133344795549116,-0.004500544914519,0.0048882500716602,0.0126654304639284,-4.314549362851677e-07,5.083818844743236e-07,-5.215557733518266e-07,11762,60.668521,70.530161,76.463732
-0.5445837346779399,0.0815580138323701,0.6535220129307509,-0.0048311929635195,0.0050244451730097,0.0127134108352501,8.584768260118441e-08,-1.7904169432000748e-07,-3.1488367377461815e-08,11763,63.169872,71.363539,79.322566
-0.2385618272601664,0.1152923854210844,0.6804731627220253,-0.0051227130468986,0.004965978552942,0.0124833176409846,4.569705251087863e-07,-6.327650227993536e-07,3.726500228315164e-07,11764,65.257019,72.103833,81.952374
0.0077246400613203,0.1330431715104487,0.7073499843219817,-0.005354207061069,0.0047632768030321,0.0121237369077889,7.357218465280554e-07,-9.90853285809812e-07,6.569678773194655e-07,11765,67.27505,72.764864,84.757458
0.1502828299540003,0.1316992698261485,0.7115568778753654,-0.0055147672966056,0.0044522176975738,0.0117065212722521,9.8177012040171e-07,-1.356176009442244e-06,8.456589117179163e-07,11766,69.628445,73.352247,87.999371
0.1808392556650696,0.1393012204547838,0.6828958407415637,-0.0056034200596095,0.0040557196648066,0.0112227978301199,1.226457682221192e-06,-1.7371213968677551e-06,1.0119756712954817e-06,11767,72.391118,73.879058,91.609544
0.1749144828133095,0.1445444404636613,0.6453985107546496,-0.0056150723963059,0.0036285939275448,0.0106794335344746,1.4790345112389782e-06,-2.1410828075947744e-06,1.1714300779512591e-06,11768,75.264611,74.327034,95.266432
0.2148099893304338,0.1346239923363064,0.6151157594964698,-0.0055452470215586,0.0032522788523834,0.0100597939807917,1.738299799542059e-06,-2.585084192182003e-06,1.2948859342724042e-06,11769,78.055986,74.68929,98.75349
0.3032008697964993,0.1202625763873786,0.5849777791937383,-0.0053909404936888,0.0029668574532777,0.0093714408247218,1.9704340722083207e-06,-2.99751652932309e-06,1.383507616394164e-06,11770,80.64364,74.962255,101.935285
0.3902436174404938,0.1096593176215056,0.5535415315192789,-0.0051495779074138,0.0027729569189875,0.0086560127180765,2.104640437523353e-06,-3.24013620212657e-06,1.4311430839538686e-06,11771,82.883353,75.157744,104.730959
0.4523273884281931,0.1009255324978933,0.5242372549168737,-0.0048223580062766,0.0026607422499207,0.0079363744329737,2.1126671112890525e-06,-3.2727178362979645e-06,1.416328537141327e-06,11772,84.635404,75.301044,107.082343
0.4740981101073835,0.087721221397626,0.4931666382734111,-0.0044149268495278,0.0025888422449272,0.0072302595390665,2.0728888001410336e-06,-3.222036464472728e-06,1.38109814853669e-06,11773,86.043682,75.425312,109.107869
0.4479799840609665,0.0826742277582598,0.466727232212511,-0.0039343167537094,0.0025358585711693,0.0065396934399082,2.086896192308234e-06,-3.230844280379425e-06,1.4103726955092843e-06,11774,87.301109,75.541182,110.975284
0.4022214462683139,0.0819903771200695,0.438117407854167,-0.003390569285396,0.0025005203238525,0.0058408151736658,2.1727775840595123e-06,-3.3250205942271563e-06,1.5229444569820646e-06,11775,88.718077,75.683648,112.942228
0.3655273699434913,0.0129128562707466,0.4122445809286418,-0.0028004320675548,0.0024563097902665,0.0050939115731184,2.3092318288256e-06,-3.474534691488174e-06,1.70297320517244e-06,11776,90.443887,75.834515,115.113618
0.3402635470004009,-0.1604232581964433,0.4591356587993933,-0.0021888428923873,0.0023601595827233,0.0042318591198285,2.50509146272429e-06,-3.680750627330551e-06,1.96849508926616e-06,11777,92.474987,75.984839,117.421694
0.292384114298568,-0.3639277973172248,0.5821233377793747,-0.0015697708302618,0.0021794720375516,0.0032219165283574,2.7620318908237644e-06,-3.966378072379453e-06,2.2909787381283987e-06,11778,94.531287,76.140599,119.616028
0.1182391869046158,-0.5281785868980077,0.665221965698493,-0.0009460738928549,0.0018859596139067,0.002068184204819,3.0534272426400856e-06,-4.32463972949887e-06,2.610062017184503e-06,11779,96.234292,76.300322,121.375752
-0.2472251134319296,-0.6398720431417153,0.6471158258432551,-0.0003202378801482,0.0014451894997655,0.0007711490211386,3.368618176722373e-06,-4.7301858963797805e-06,2.9340067577803715e-06,11780,97.401193,76.456156,122.560351
-0.5838418087523012,-0.6770399407192692,0.5665409157504524,0.0003112644154229,0.0008200178457163,-0.000654320497985,3.7146173233325407e-06,-5.199387501400458e-06,3.258123380283142e-06,11781,98.08783,76.613169,123.178043
-0.7056734283556075,-0.654863503109693,0.5191581168669027,0.0009442597085071,9.06238548417735e-06,-0.0022020200201281,4.0537150545218574e-06,-5.738184967700656e-06,3.4681428226355983e-06,11782,98.85286,76.725051,123.713886
-0.8985470484385044,-0.6696596399084119,0.5117818780646939,0.0015655042054438,-0.0009474454067538,-0.0038772872612918,4.267207472270109e-06,-6.1978542842180205e-06,3.438831853072261e-06,11783,99.435791,76.617505,123.861448
-1.2987356316943273,-0.767986683564865,0.3027258041547851,0.0021634684908662,-0.0019771267887169,-0.0056702738480685,4.2227176511558354e-06,-6.295800333128573e-06,3.1858622741889138e-06,11784,98.621799,76.295769,122.62523
-1.5199950610652655,-0.886210043651212,-0.1921504160188259,0.0027242096872155,-0.0029540301149541,-0.0075602112181817,3.8688577139148165e-06,-5.8395542649820535e-06,2.8230802984928927e-06,11785,95.560331,75.956181,119.283216
-1.4240896415516826,-0.900990381595528,-0.5905903828469976,0.0032371870480403,-0.0038226102401734,-0.0095003771833351,3.256637736561301e-06,-4.879254521143673e-06,2.421521312127981e-06,11786,90.11695,75.734985,113.697162
-1.2399740793070064,-0.7409814818545591,-0.6556981023002568,0.0036966090005847,-0.0046016515361598,-0.0114075922767024,2.52473414916763e-06,-3.653662770326905e-06,2.0430245501305757e-06,11787,83.12004,75.500167,106.431062
-0.9465011608355156,-0.479764906988025,-0.6526387422478316,0.0040956144333663,-0.0053069097728188,-0.0131627703559316,1.8408614758705997e-06,-2.448169279559916e-06,1.7689964975400642e-06,11788,75.974418,75.016422,98.682171
-0.5004336897435324,-0.1972978836030235,-0.7740106450917213,0.004428303929666,-0.0059876257905962,-0.0145932011459727,1.3028783485339404e-06,-1.4781376402981154e-06,1.5828242460988015e-06,11789,70.112469,74.217796,91.807134
-0.2179427279865056,0.0635303743369399,-0.903084797925009,0.0046889850211438,-0.0066484145973325,-0.0156141859662729,8.950710171967701e-07,-8.032597271622635e-07,1.360429692542366e-06,11790,65.940589,73.193244,86.281112
-0.2183066427113695,0.2014357971651887,-0.9805262388871304,0.0048717752914658,-0.0072392977602172,-0.0162358328661036,4.953199861439549e-07,-2.655917124849063e-07,9.7434961881585e-07,11791,62.757295,72.03884,81.689148
-0.086180817603721,0.1962345545234512,-1.0347149866450596,0.0049729023423149,-0.0077199964698007,-0.0164833267894155,-5.855785580205241e-08,4.199145795359957e-07,3.612804499537632e-07,11792,59.451057,70.746639,77.392438
0.4558502816999382,0.1934221648138266,-1.04957747500347,0.0049908008698074,-0.0080353841024488,-0.0164441870005163,-8.440165638800119e-07,1.440325993653127e-06,-4.3505955784283485e-07,11793,55.737931,69.329001,73.235789
1.0404693598626502,0.2593416174017804,-1.0180007705702303,0.0049236533380624,-0.0081536436968358,-0.0161364222583668,-1.812042654046384e-06,2.774281513209214e-06,-1.3050122007348356e-06,11794,52.148183,67.829075,69.478953
1.2094859887738607,0.2977512313013788,-0.9533086711189364,0.0047700604639776,-0.0080748509837071,-0.0154994113801377,-2.829180405296142e-06,4.217075762105697e-06,-2.1594659131495527e-06,11795,49.2514,66.323015,66.325144
1.0755124373425455,0.2875620403763248,-0.8831301302162724,0.0045309561217978,-0.0077949551558559,-0.0144960810662872,-3.725500925624459e-06,5.490324736996923e-06,-2.9078902609379547e-06,11796,47.222592,64.891934,63.807607
0.9746585235134892,0.2841536757180303,-0.8254191416910666,0.0042097736393142,-0.0073196911602572,-0.0130766991585332,-4.386092332764273e-06,6.418650654160337e-06,-3.4696882999046583e-06,11797,45.893246,63.587162,61.862814
0.9328221329524892,0.2854520785003384,-0.7665304417987852,0.0038109730756344,-0.0066537564512224,-0.0112467741697443,-4.820850723203576e-06,6.992276422262492e-06,-3.886465669044088e-06,11798,44.992515,62.431386,60.406388
0.8436825188689515,0.2774454526083866,-0.6964416628707351,0.0033409579475931,-0.0057987005002361,-0.0090864560016212,-5.119581192779754e-06,7.303626016033909e-06,-4.282684856333173e-06,11799,44.353616,61.441129,59.378729
0.6361426116886092,0.265109129715833,-0.5977910720360775,0.0028100952880609,-0.0047718705009899,-0.0067005928522201,-5.362726141421185e-06,7.477573920817791e-06,-4.710535119791371e-06,11800,44.008923,60.644893,58.765776
0.2732196352751751,0.2626268026782828,-0.4498583774372793,0.002233656354715,-0.0036060677872133,-0.0042529640108911,-5.582592107335583e-06,7.612399853168555e-06,-5.12404659530782e-06,11801,43.911709,60.073189,58.499198
-0.0705949948569063,0.2547534983306245,-0.2881948933663149,0.0016219658555925,-0.0023208964213014,-0.0018311748061184,-5.772728006665321e-06,7.737529368084958e-06,-5.465606625995916e-06,11802,43.974709,59.751331,58.507269
-0.1998181250923474,0.2373389113344766,-0.1700417553320148,0.0009806175126177,-0.0009254080559215,0.0005620347688289,-5.886996086250376e-06,7.777357872538573e-06,-5.714364072036428e-06,11803,44.115988,59.685042,58.757342
-0.1861411392947812,0.2991678318414995,-0.0910455910574356,0.0003165237078409,0.0005662814796066,0.0029152518590107,-5.849353480077589e-06,7.610402831217517e-06,-5.829414276310109e-06,11804,44.365391,59.878215,59.297637
-0.1370903275104839,0.4537556733944456,-0.0057797318544863,-0.0003644926610411,0.0021407358788487,0.0052490372704044,-5.617089781114574e-06,7.20254160803357e-06,-5.739277782139392e-06,11805,45.056784,60.348756,60.327277
-0.1423701715476547,0.5440066607265032,0.1023075740389694,-0.0010497459485188,0.0037600337007737,0.0075329345541572,-5.204163574335192e-06,6.580868626816415e-06,-5.443500349006522e-06,11806,46.355803,61.135844,62.003193
-0.3745479704144281,0.5107738931230883,0.1996444418223129,-0.0017179245410554,0.0053554436832014,0.0096721235367399,-4.622434482583479e-06,5.735567439591827e-06,-4.9876949513530346e-06,11807,47.973229,62.236925,64.18861
-0.7332984236719227,0.4641796950905317,0.2598238064038177,-0.0023433199422673,0.0068376501918527,0.0115754998316624,-3.8653814024834444e-06,4.666834556385608e-06,-4.355177530285821e-06,11808,49.638018,63.599929,66.63589
-0.9052556926862824,0.4241540903290986,0.2933031131780499,-0.0028917020423511,0.0080817789834202,0.0131267195613028,-2.9600106946106346e-06,3.460105233577867e-06,-3.50320059383124e-06,11809,51.534428,65.146603,69.170417
-0.8643921308627824,0.3648296376353118,0.3104157802767139,-0.0033427049619918,0.009020650750848,0.0142594177679934,-1.9751052883596918e-06,2.226306192040771e-06,-2.465708319755133e-06,11810,53.840902,66.776637,71.802686
-0.6488372106975708,0.3336541385133278,0.3775811085036843,-0.0036913235710827,0.0096501846106504,0.0149694940706264,-9.796438606400988e-07,9.987984681390456e-07,-1.3862277486433247e-06,11811,56.524344,68.373715,74.668055
-0.169629534074869,0.255732318807986,0.5914457625585062,-0.0039343788014644,0.0099746044927424,0.0152604466400373,-3.47934368705168e-08,-2.188858511951121e-07,-4.309579301751772e-07,11812,59.503879,69.905734,77.961296
0.3302334068104164,0.0360231382679938,0.860295878494827,-0.0040780471420042,0.0100375840694486,0.0151723990885024,7.889649445667335e-07,-1.3453658093890878e-06,3.186570314826901e-07,11813,62.951084,71.334764,81.97205
0.4751833941345031,-0.1775055094307315,0.976705295772246,-0.00412541948421,0.0098690184331936,0.0147377585467634,1.4587640033647295e-06,-2.30238256372464e-06,8.80051527910643e-07,11814,67.078623,72.591565,86.849839
0.3872234476494956,-0.2280993413688597,0.950444237968288,-0.0040764450500269,0.0094848969141929,0.0139814735213821,2.0367541337087176e-06,-3.1334357879032847e-06,1.3594937793417929e-06,11815,71.686418,73.65176,92.279224
0.3799073222310796,-0.1916377237355295,0.9406873243813432,-0.0039418073103603,0.0089454794198887,0.0129747435766746,2.6038648677682118e-06,-3.902821053235594e-06,1.889450680156389e-06,11816,76.401515,74.522911,97.755321
0.4538730832227815,-0.1767895097741008,0.9617037514508464,-0.003741907772535,0.008350612558568,0.0118334540756574,3.166613752171315e-06,-4.589806935475838e-06,2.520417766617602e-06,11817,80.912035,75.241323,102.89738
0.4910031709504721,-0.1708656314070692,0.9484131671735792,-0.0034858578346065,0.0077454935459827,0.010619960614727,3.6911075550300448e-06,-5.164633258195485e-06,3.200824753627234e-06,11818,85.077132,75.838523,107.499935
0.472725308079824,-0.1549825007617297,0.9030418594801808,-0.0031727087268402,0.0071240940544765,0.0093473094257667,4.14686296897908e-06,-5.6330017723331145e-06,3.834640150003954e-06,11819,88.773486,76.337126,111.495573
0.4316700900470458,-0.1384977573440807,0.8419338488435308,-0.0028016334472102,0.0064724208018909,0.0080285955584664,4.50041177060765e-06,-5.982625926878901e-06,4.344035902790828e-06,11820,91.943233,76.745471,114.907097
0.3992063487775857,-0.1229175778851419,0.7832100250838199,-0.002366517328275,0.0057412550239959,0.006650843875088,4.7179663577829424e-06,-6.182427358214957e-06,4.679717298055686e-06,11821,94.587125,77.077949,117.797203
0.3710507592216873,-0.1210742711150503,0.7386786874394301,-0.0018733576627049,0.004918388975675,0.0052213771397833,4.810287325293923e-06,-6.252904983845641e-06,4.843750380121455e-06,11822,96.599617,77.350804,120.11269
0.3258917012020596,-0.113963580036684,0.6890903885758118,-0.0013425790599876,0.0040328612948633,0.0037712088421799,4.853014936856476e-06,-6.284277372984842e-06,4.920407880187058e-06,11823,98.041377,77.586414,121.882073
0.2921237080033924,-0.0970029416924573,0.6362600569535822,-0.0007980867466759,0.0030982653455039,0.0023109635680993,4.8977490700850566e-06,-6.333501033513124e-06,4.977061033664654e-06,11824,99.069648,77.784267,123.237735
0.2762553559738376,-0.1423313466903434,0.5870722279488962,-0.0002741098960363,0.002131557587599,0.0008407201577042,4.92821178450871e-06,-6.371303525323119e-06,5.013676416626625e-06,11825,99.917281,77.939897,124.315577
0.1439866963750048,-0.2524303713834221,0.5361941150072023,0.0002108530943905,0.0011419276731985,-0.0006375607285594,4.934024570636115e-06,-6.363052508200605e-06,5.047523079363513e-06,11826,100.667477,78.0414,125.116301
-0.2206236772475338,-0.3221882513744448,0.4901551289002665,0.0006562469563611,0.0001238694260535,-0.0021266772323964,4.928193129357641e-06,-6.311285421916326e-06,5.10601403514835e-06,11827,100.9147,78.096684,125.304083
-0.6558314745358429,-0.2947529828718412,0.432167478096783,0.0010620524416907,-0.000924828600323,-0.0036363870477657,4.9005692750197975e-06,-6.217315068022871e-06,5.160056671107184e-06,11828,100.142269,78.160201,124.491209
-0.8343722462344436,-0.2429274791037994,0.3871402870670226,0.001437385764731,-0.0020086696906947,-0.0051845895460367,4.804541000709225e-06,-6.049771700832449e-06,5.127262603080366e-06,11829,98.426925,78.271686,122.702277
-0.8383279176398171,-0.3117384188447795,0.3796174058915147,0.0017869499904428,-0.003119021722689,-0.0067652338510658,4.597157952742058e-06,-5.774926563358002e-06,4.931523582208008e-06,11830,96.345114,78.286847,120.354958
-1.115929841995438,-0.5092045211741187,0.2091929742031947,0.0021102382281411,-0.0042298355731418,-0.0083451976958027,4.278022896743227e-06,-5.392741479085513e-06,4.5642332601614456e-06,11831,93.592918,78.090926,117.242466
-1.5884183601315307,-0.646545649366467,-0.2721562801828133,0.0024163712854449,-0.0053074419907885,-0.0098785941194441,3.849636361129063e-06,-4.878600631216268e-06,4.066139652408977e-06,11832,89.466005,77.694755,112.822431
-1.8215826427380413,-0.6421184086360963,-0.75757961204368,0.0027221557158617,-0.0063023010019368,-0.0112930589766808,3.2866330237074496e-06,-4.158107627551785e-06,3.4759318991081176e-06,11833,83.67114,77.181045,106.753672
-1.7308509232484433,-0.5667023275195642,-0.9158520046067988,0.0030326071289335,-0.0071831065891569,-0.0125446842346054,2.5852591165514947e-06,-3.210355512431452e-06,2.813628109967263e-06,11834,76.621211,76.555115,99.399803
-1.2893219016514703,-0.3785708232529016,-0.859950702681288,0.0033417676432103,-0.0079382155142166,-0.0136196533067751,1.7786239479247208e-06,-2.1054739173431264e-06,2.0708273033857017e-06,11835,69.471401,75.6698,91.848524
-0.6119294452402394,-0.0893142317368732,-0.8303134716029483,0.0036405986652234,-0.0085517613310244,-0.0144954023800002,9.000638456254361e-07,-9.135046830464448e-07,1.246868599070984e-06,11836,63.475188,74.482377,85.36282
-0.175087107404696,0.1240377842485675,-0.9157098748218006,0.0039110600321595,-0.0090130698621007,-0.0151549789776303,-2.1399763278141685e-08,3.392212764344968e-07,3.949818703572981e-07,11837,58.986551,73.051676,80.354767
0.0820534050013257,0.2633104144934025,-1.1230765083963692,0.0041407187314582,-0.0093045810835758,-0.0155676062677801,-9.624996433510356e-07,1.6442831550920994e-06,-4.336155750775976e-07,11838,55.382954,71.498793,76.32964
0.6935002285366125,0.428784324001121,-1.3364452538089098,0.0043227312001556,-0.0093990656056628,-0.015683017072072,-1.918110547430006e-06,2.9963337395285567e-06,-1.2413593610501214e-06,11839,52.107823,69.896503,72.732631
1.3580018905222264,0.5397169036418863,-1.427691427818185,0.0044430184050524,-0.0092722538899777,-0.0154495293843464,-2.8797474896458503e-06,4.368001436128991e-06,-2.040877740724275e-06,11840,49.002003,68.248998,69.37717
1.476274645044905,0.563197792755155,-1.4345971451020394,0.0044826841478393,-0.0088988184947399,-0.0148055638377996,-3.809401950783661e-06,5.684708849842474e-06,-2.820375990167276e-06,11841,46.282372,66.607753,66.386224
1.3104241945098596,0.5965855797232851,-1.4104765048363306,0.0044214065453564,-0.008275443416456,-0.0137183063393013,-4.632410969794785e-06,6.821710275190926e-06,-3.542913202342204e-06,11842,44.252043,65.053011,63.92102
1.2173692030407397,0.6268785601975534,-1.3405116355600777,0.0042347797368947,-0.0074264830925434,-0.0121895163892198,-5.264494339638594e-06,7.649263626811681e-06,-4.159208249156044e-06,11843,42.999301,63.669319,62.036472
1.1496792254434682,0.6088921205734182,-1.23863686187961,0.0038922917629723,-0.0063945811348203,-0.0102337349871841,-5.6712498149365166e-06,8.119168891555314e-06,-4.644036760765134e-06,11844,42.391931,62.498748,60.728263
1.0862542651123397,0.5688436847911619,-1.1474828447201015,0.0033556179525411,-0.0052542492534324,-0.0078950919640401,-5.893584892478083e-06,8.294226380872988e-06,-5.021666482295061e-06,11845,42.146828,61.569078,59.902829
0.952880045765057,0.493982700302012,-1.0732863795745171,0.0026306725238768,-0.0040434644278189,-0.005232907672329,-6.028835597023732e-06,8.321829508024143e-06,-5.356455033134075e-06,11846,42.106208,60.886741,59.480314
0.6555994280442117,0.3946566130126228,-0.9588603109847452,0.0017748077737219,-0.0027619294409703,-0.0023286961215619,-6.165601347573916e-06,8.345474320187994e-06,-5.699830998877392e-06,11847,42.168,60.466869,59.408269
0.2920789062900757,0.3326023907953724,-0.7551146110069407,0.0008779037790355,-0.0014165776340805,0.0006807722398628,-6.309128207385565e-06,8.386557501810086e-06,-6.0388208777682105e-06,11848,42.24533,60.301788,59.667587
-0.0019511862048571,0.2977051338441511,-0.49533345240651,8.833872090893246e-05,-2.9287095632034646e-06,0.0035911931770641,-6.396271486060298e-06,8.359530778354007e-06,-6.311869577444683e-06,11849,42.357384,60.409574,60.235035
-0.1954432574524955,0.2472051491435079,-0.2759447053198846,-0.0005284933421224,0.0014645916843406,0.0062672989678079,-6.3382822530484095e-06,8.14223855616564e-06,-6.438242549625419e-06,11850,42.61996,60.807356,61.124089
-0.2711345200632307,0.2013131006343674,-0.1231525880043304,-0.0009966626629651,0.0029465428329056,0.0086392474632065,-6.035784844189241e-06,7.597095801689437e-06,-6.335149987526549e-06,11851,43.249735,61.511705,62.463549
-0.2959493409056067,0.1869141275073178,0.1033830049150726,-0.0013419099819286,0.0044055946977937,0.0106201535858423,-5.43055120870135e-06,6.6398575679102255e-06,-5.961064198642934e-06,11852,44.636829,62.560089,64.507758
-0.4857795888602835,0.1774106555168176,0.4660444263713391,-0.0016354649860489,0.0057955834532198,0.0121394264920254,-4.540252855935262e-06,5.299016586081209e-06,-5.323667683151312e-06,11853,46.820134,63.912119,67.242347
-0.814137224183002,0.1581311217789643,0.7667676913954745,-0.0019099585014972,0.0070675891650988,0.0131646263744043,-3.432348648564229e-06,3.686642046447491e-06,-4.451901218978998e-06,11854,49.596506,65.435387,70.492951
-1.0003687992512067,0.1461227171594266,0.8540113499956652,-0.0021520964758825,0.008170539355868,0.0137044304765623,-2.2082229200289817e-06,1.9721758747986647e-06,-3.397416355819481e-06,11855,52.868497,66.973191,74.017255
-0.9440721462551998,0.1353758787841799,0.8106366849615744,-0.0023807553582577,0.0090363715533319,0.0138351552596338,-1.0065824719941014e-06,3.769061340571304e-07,-2.246911073598205e-06,11856,56.373362,68.396384,77.505021
-0.6714361374706719,0.1251237246741314,0.7708560597805579,-0.0026272968903058,0.0095780302715053,0.0137246213625813,2.582271923011745e-08,-9.014358163849702e-07,-1.1356542315012865e-06,11857,59.548677,69.653421,80.573161
-0.2338240779864848,0.1421983155381314,0.8390784339525603,-0.0028966240047297,0.009759189591538,0.0134558726877604,8.142036521916902e-07,-1.808510621868724e-06,-1.9439977603344144e-07,11858,61.94559,70.81126,83.04401
0.1403024785728018,0.1803614185664587,1.0191253872390953,-0.0031728462758204,0.0095989539163583,0.0130323546978642,1.403133879244869e-06,-2.440314401337345e-06,5.692358067553385e-07,11859,63.766279,71.901581,85.200796
0.3199503467708782,0.1935984867755139,1.1356359310411066,-0.0034219359653039,0.0091422480926374,0.0124917674522264,1.8909479175168064e-06,-2.9310492161674053e-06,1.2458625853156518e-06,11860,65.604982,72.916124,87.58102
0.5135274075445152,0.1682809129573652,1.1087286192003614,-0.0035789079864899,0.0084880567490713,0.0118662834098588,2.3448480296569457e-06,-3.3899655069584468e-06,1.8741144862776616e-06,11861,67.934512,73.846978,90.528885
0.7667386102217182,0.1396572477355288,1.0770992209224888,-0.0036183190517046,0.0076963472647037,0.0111753625292185,2.7967903472544897e-06,-3.898572545113131e-06,2.430315927112543e-06,11862,70.845852,74.675679,94.03396
0.846221424349975,0.1226476532065871,1.0798252778624322,-0.0035557076561028,0.0067885451641479,0.0104335103536213,3.257700005234001e-06,-4.466378053907994e-06,2.9301759651516048e-06,11863,73.964713,75.364773,97.751293
0.7625059496212196,0.0961799110514651,1.0408174849762426,-0.003403985189274,0.0058220139092828,0.0096222877420729,3.6868986527625143e-06,-5.00147027661249e-06,3.387231048781504e-06,11864,76.908466,75.898397,101.297751
0.6961167850060128,0.0640830151331272,0.9820583642474664,-0.0031935335673106,0.0048722715078492,0.008683827737157,4.002373018727998e-06,-5.403505788092434e-06,3.7132174607806337e-06,11865,79.522472,76.296661,104.452996
0.6589072234354388,0.0414014023521051,0.936449226510399,-0.0029351294245065,0.0039829290672096,0.0076089692060755,4.179109159456458e-06,-5.682991402652164e-06,3.82404708358781e-06,11866,81.768686,76.567146,107.135166
0.5744238161871436,0.0212318348585304,0.8821319610250691,-0.002615123243977,0.0031707612504895,0.0064353644622831,4.274095181275134e-06,-5.9092163705366445e-06,3.781311684735178e-06,11867,83.604623,76.728592,109.342746
0.4279875913344543,0.0029755964346077,0.8174558934787804,-0.0022286693033826,0.0024366211097477,0.0051990091390169,4.331658084340731e-06,-6.089568483046371e-06,3.6984138953245967e-06,11868,84.972473,76.809674,111.104469
0.2677407286547874,-0.0590147380670591,0.756036611101665,-0.00176904155817,0.0017496247796308,0.0039580616561441,4.362348729340313e-06,-6.213476625774072e-06,3.619806764595433e-06,11869,85.929626,76.845462,112.522394
0.1482210639811149,-0.2379976054216681,0.7051302227503345,-0.0012419049144519,0.0010936361337931,0.0027334971223307,4.407265703930263e-06,-6.327108266021141e-06,3.5935347861119152e-06,11870,86.756784,76.86432,113.771161
0.057264633236204,-0.4607640215140777,0.6497519961465194,-0.0006710434592334,0.0004643130423393,0.0015013204838724,4.509815196261051e-06,-6.459055217065455e-06,3.6973146807853775e-06,11871,87.639772,76.855562,114.861532
-0.0629510036474318,-0.5710126217483211,0.5855573274885122,-8.588018844626704e-05,-0.0001711967460653,0.000236160891031,4.644637462038184e-06,-6.564856013074177e-06,3.9208952570386205e-06,11872,88.443752,76.80981,115.650517
-0.2057911821680056,-0.5525454663094526,0.5268933533462375,0.0004704401132651,-0.0008692235377661,-0.0011095316953885,4.756007078768163e-06,-6.596558292377748e-06,4.176230073193255e-06,11873,88.542473,76.76061,115.671981
-0.3094045247317888,-0.5162588030780372,0.4442789409991432,0.0009759232020315,-0.0016489883396363,-0.0025492800548501,4.809373601810656e-06,-6.5355926462057896e-06,4.393796201685173e-06,11874,87.509208,76.754599,114.599164
-0.3721320267176846,-0.5755445632268499,0.3601196307598419,0.0014325615820865,-0.0024942197129254,-0.0040556175818999,4.771199200843043e-06,-6.36188422472422e-06,4.509797097755795e-06,11875,85.864858,76.801677,112.889595
-0.5106261511703062,-0.7505203149244409,0.3004699247058848,0.0018434784774914,-0.0033788435235792,-0.0056020505671776,4.601113988959548e-06,-6.045313914330091e-06,4.457084549096679e-06,11876,84.237568,76.705364,111.027564
-0.8094824374767705,-0.9089937320243796,0.0841799794024771,0.0022245036858962,-0.0042480401997641,-0.0071439950175208,4.2647690253468735e-06,-5.5333449665501766e-06,4.213738117523529e-06,11877,82.533003,76.343289,108.996133
-1.1712818071209572,-0.9148499279321,-0.3704526525600476,0.0025840045751396,-0.0050649032742312,-0.008644359599716,3.746983631915105e-06,-4.780821455775865e-06,3.794576490799304e-06,11878,79.76028,75.756669,105.974899
-1.3292615549632605,-0.8286081399541269,-0.756468501837311,0.0029216670251589,-0.0058104538387935,-0.0100757362918175,3.063673706222797e-06,-3.811547930025557e-06,3.206427069754388e-06,11879,75.515518,75.087094,101.56192
-1.0794005694538626,-0.7649824425779737,-0.8473886800846804,0.0032491768533777,-0.006442525897187,-0.0113896278070846,2.2645696223070075e-06,-2.705457646395347e-06,2.4810041154105546e-06,11880,70.564551,74.306498,96.305379
-0.6579500062585872,-0.668089528142192,-0.815055330125265,0.0035867594829176,-0.0069035125272539,-0.0125197559877932,1.4259738469945469e-06,-1.5574161663750902e-06,1.7081424349850675e-06,11881,65.844933,73.337457,91.07261
-0.3635393969633655,-0.450915631084376,-0.8608879898010595,0.0039401248748266,-0.0071624366364928,-0.0134237122886731,6.003030355626858e-07,-4.286075990024582e-07,9.554074542198772e-07,11882,61.945333,72.177808,86.560872
-0.0385648600522159,-0.1653094322396484,-1.0137615016362482,0.004301537487264,-0.0072127602739748,-0.0140807410039943,-2.1537697070877322e-07,6.85839119499914e-07,2.2171959370539129e-07,11883,58.832131,70.904065,82.785317
0.4080338402135206,0.0905512357611722,-1.2316545180174745,0.0046580104162401,-0.0070581997586173,-0.0144735664474618,-1.0510058382506571e-06,1.8390410515519544e-06,-5.062627119126544e-07,11884,56.025833,69.54907,79.31473
0.7373822120514699,0.2627684199245532,-1.3857990422894002,0.0049839612340799,-0.0067262001121221,-0.0146000915743111,-1.9425426277853107e-06,3.099242049868167e-06,-1.2386379379672705e-06,11885,53.231596,68.126887,75.838023
0.9066462764141134,0.3520577100540802,-1.388490199979558,0.0052584835487492,-0.0062343809261913,-0.0144410833302207,-2.8823229528503497e-06,4.437975805431444e-06,-1.998873770272751e-06,11886,50.526325,66.691599,72.399819
1.052039315318525,0.4067581229169324,-1.3109780449298656,0.0054643900462387,-0.005592278079078,-0.0139581761748402,-3.7698965985793856e-06,5.673404482581588e-06,-2.7612083110893977e-06,11887,48.075507,65.256942,69.171935
1.107886976322744,0.4584653375765158,-1.2271398362789547,0.0055716849322651,-0.0048324720505073,-0.0131184672663021,-4.477131772874535e-06,6.6268048185656e-06,-3.4108326076670696e-06,11888,46.078758,63.898565,66.334416
1.0297063158979285,0.4781143140412852,-1.150887806801137,0.0055389754702572,-0.0040073527709379,-0.0118857155760031,-4.959822664827447e-06,7.254222540264725e-06,-3.877297825029076e-06,11889,44.775826,62.689168,64.057982
0.9387289197811172,0.4532824456413983,-1.0765630900362004,0.0053448439214589,-0.0031438946372735,-0.0102544293985692,-5.26804208530484e-06,7.612935286113585e-06,-4.21934999924278e-06,11890,44.197901,61.695865,62.396574
0.8854985172575202,0.4191066066418071,-1.0017998006500426,0.0049877715856849,-0.0022459265191967,-0.0082580344469582,-5.456782902531267e-06,7.777165366343296e-06,-4.494702848024997e-06,11891,44.067535,60.917573,61.277967
0.847614846051248,0.3636323636294808,-0.9370177802689944,0.0044725508662933,-0.0013149312624231,-0.0059522853246082,-5.54865210697884e-06,7.799533425820079e-06,-4.699787442263859e-06,11892,43.99657,60.357641,60.577165
0.6812640924028186,0.2793009091766405,-0.8375951922728897,0.0038207318866792,-0.0003375859918801,-0.0034340946902631,-5.571939182651427e-06,7.724028343832792e-06,-4.851892612548143e-06,11893,43.969734,60.045582,60.278768
0.2678043831360712,0.2373700815256905,-0.6572458994980188,0.0030488647510908,0.0006766739035317,-0.0007916928032658,-5.532190490254059e-06,7.542580486365909e-06,-4.976467233463922e-06,11894,44.177171,59.964247,60.407243
-0.1702759673690781,0.2648065531488582,-0.4374714460070419,0.0021697009513542,0.0016921863226993,0.0018903124850835,-5.353992592171188e-06,7.14392202801626e-06,-5.018800015356597e-06,11895,44.614368,60.102336,60.907861
-0.3787879327481719,0.3039480707163965,-0.20754438795196,0.0012145091200623,0.002673264584054,0.0044807081345552,-4.96494751844717e-06,6.4426091390298445e-06,-4.8926874305156585e-06,11896,45.354295,60.504755,61.775744
-0.3866850048195089,0.311006774729135,0.0356572028709932,0.0002318542727448,0.0035719132242292,0.0068025046668137,-4.420599324813481e-06,5.538312894763281e-06,-4.609089938533196e-06,11897,46.572809,61.155659,63.08328
-0.3457908888038456,0.2940301985825116,0.2519666787239842,-0.0007505460933647,0.0043592780857296,0.0087548721760034,-3.822491958601631e-06,4.604307269657479e-06,-4.215290648504502e-06,11898,48.240782,62.012079,64.874313
-0.4022123855895056,0.2760649071918124,0.4088086993143637,-0.0017240699591992,0.0050297622563987,0.0103138340238174,-3.1769963115043743e-06,3.676836132209719e-06,-3.691474619257395e-06,11899,50.081855,63.027852,67.072157
-0.5673105749775413,0.2611197619721485,0.5107672212579153,-0.0026803176279935,0.0055772940728973,0.0114753475809927,-2.468463154712787e-06,2.7165549733144843e-06,-3.051738232247554e-06,11900,51.781873,64.211139,69.456839
-0.681329879686339,0.2430520306389769,0.5453555372554848,-0.0036212711633959,0.0060061035399283,0.0122952764603474,-1.7710125367731528e-06,1.8009369113617866e-06,-2.387924564551494e-06,11901,53.37138,65.466182,71.828625
-0.6598725880265816,0.2247947170996232,0.520685690099933,-0.0045280958643042,0.0063175522172634,0.0128060507165724,-1.1669418613149325e-06,1.0581368868800218e-06,-1.7482902596216588e-06,11902,54.978167,66.751533,74.093922
-0.5100615976477688,0.2129207416849538,0.5159769470346567,-0.0053572890011453,0.0065091794262571,0.0130189741815342,-6.397422428852105e-07,4.725628924679365e-07,-1.1100929484068524e-06,11903,56.624724,67.978845,76.301333
-0.2228181911135852,0.2006169490005506,0.5883921745553242,-0.0060612070268907,0.0065918433168815,0.0130073126239878,-1.4957417604341178e-07,-4.4791295071585724e-08,-4.806402976482664e-07,11904,58.130983,69.135171,78.488204
0.096757382898782,0.1751885312084113,0.6925565215797684,-0.0065764313997104,0.0065886823095756,0.0128984153161862,2.702778702056921e-07,-4.768719217822737e-07,7.90350037082058e-08,11905,59.675346,70.255814,80.902942
0.305714195507104,0.1283062582582985,0.7328382066213962,-0.0068676525779675,0.0065106125651137,0.012744741199726,5.971175763403469e-07,-7.750362670217318e-07,5.696475389528198e-07,11906,61.714036,71.306424,83.881704
0.4018860050854874,0.0563703791391891,0.7011745093456662,-0.0069322842736823,0.0063582787987939,0.012528811979208,8.992011093334099e-07,-1.025408380449064e-06,1.056437078319033e-06,11907,64.246666,72.290544,87.391838
0.4359694107234634,-0.0288641617898714,0.6935900831009691,-0.0067720217945537,0.0061344682108428,0.0122216955939044,1.2470413400459332e-06,-1.3824501237403482e-06,1.5283607414325385e-06,11908,67.08484,73.183885,91.251013
0.4461292268059579,-0.1099805604570683,0.7398594290529785,-0.0064085402975778,0.0058385243561647,0.0117456636116613,1.6275185247411478e-06,-1.8666416904573951e-06,1.924988962942797e-06,11909,70.1892,73.974187,95.321577
0.4683203318744652,-0.1787929331429895,0.8025897996660671,-0.0058631936904844,0.0054718876079409,0.0110753454660455,1.9869819460014265e-06,-2.3562212308205307e-06,2.25682036090634e-06,11910,73.680309,74.646627,99.589067
0.4789074225377496,-0.226465736138952,0.8710600324234529,-0.0051581565425907,0.0050389777764544,0.010243651389148,2.309903039969382e-06,-2.785578609525632e-06,2.563916302877949e-06,11911,77.417336,75.180989,103.905596
0.4417917358516349,-0.2411393875658698,0.9150295921078938,-0.0043444133511228,0.0045402234931854,0.0092632755944272,2.6263851979190675e-06,-3.218813855896652e-06,2.844894724495565e-06,11912,80.996328,75.57747,107.976776
0.3763145056218093,-0.2307253913148482,0.9077033199629052,-0.0035033496936374,0.0039730673712815,0.0081533671812799,2.953856685248337e-06,-3.692978989092524e-06,3.1018550260925464e-06,11913,84.106824,75.866256,111.533854
0.2836911883585714,-0.2276919617537738,0.8690033807945032,-0.002675256009254,0.0033395263096539,0.0069268476435568,3.252663129896737e-06,-4.1185422625621815e-06,3.346302040356475e-06,11914,86.767443,76.078478,114.509225
0.1747134959740003,-0.2458470162469107,0.8163396114069801,-0.0018603487494897,0.0026456995258126,0.0055821162051544,3.469370292836437e-06,-4.418021177020824e-06,3.535432207897932e-06,11915,88.99415,76.247667,116.894735
0.0962655612806786,-0.2618070971570263,0.7709246822729053,-0.0010554474133278,0.0018989196656544,0.0041287714228117,3.6176938810895566e-06,-4.64288808993346e-06,3.640476578501736e-06,11916,90.716298,76.391077,118.664455
0.0206272347090253,-0.2677816759656404,0.7564817623807218,-0.0002331963501287,0.0011099729378924,0.0025828378683322,3.738333188254231e-06,-4.820083705746175e-06,3.737551085993675e-06,11917,91.942525,76.513812,119.916961
-0.0962738396614053,-0.2860041366491045,0.732055941946413,0.0006061783003591,0.0002874056254992,0.0009587816331955,3.806549978547909e-06,-4.840117238706892e-06,3.90313484853816e-06,11918,92.774641,76.59209,120.704003
-0.2117423152617897,-0.3135786254653709,0.6658198068032779,0.0014307539923511,-0.0005624732577748,-0.0007264747688459,3.789715766493054e-06,-4.660237581444489e-06,4.103185124801981e-06,11919,93.079166,76.616691,120.889724
-0.2498740028067897,-0.322389815990063,0.6001634647846774,0.002217932341134,-0.0014307157784835,-0.0024520733594991,3.7345331585227064e-06,-4.4301695213856594e-06,4.265112061411686e-06,11920,92.598656,76.612018,120.298306
-0.2414996507934231,-0.3008230688635191,0.5397592782397257,0.0029400395638355,-0.0023067219989553,-0.0041926471854787,3.681815068782931e-06,-4.265517705474126e-06,4.348923455711911e-06,11921,91.310868,76.604797,118.87246
-0.3982714142113831,-0.3024523826803993,0.4669932926197868,0.0035784695607678,-0.0031771139848191,-0.0059260334892773,3.550184302290387e-06,-4.071772063583737e-06,4.258713669344418e-06,11922,89.923311,76.544463,117.169023
-0.8215414753999959,-0.4006723870106767,0.3268285626504009,0.004128864114647,-0.0040243118069249,-0.0076329166883273,3.227276644291059e-06,-3.7157296420118254e-06,3.858781668160355e-06,11923,88.580172,76.268741,115.32896
-1.235920604906613,-0.5316868713003351,-0.0389887653306949,0.0045843750863312,-0.0048265149560263,-0.0092913802501558,2.724380299076893e-06,-3.1939675148897894e-06,3.182299248703616e-06,11924,86.435011,75.78023,112.715498
-1.3267702970021795,-0.5879825393872788,-0.5872596212810329,0.004941506156289,-0.0055557201969262,-0.0108783605341462,2.1220445234411424e-06,-2.53392233201985e-06,2.41809011159089e-06,11925,82.691359,75.200657,108.590776
-1.1981852342739407,-0.5547621615589027,-0.9770919873406207,0.0052008755945968,-0.0061925101885317,-0.0123606570298786,1.4732144894869314e-06,-1.7383364961827742e-06,1.710060333796196e-06,11926,77.468007,74.615773,102.938449
-1.117854547694361,-0.403222536006734,-1.042406818497286,0.0053668622325369,-0.0067265194255656,-0.0136921018210942,8.402679545250586e-07,-8.984128044005013e-07,1.1048282613015394e-06,11927,71.785995,73.930655,96.546528
-0.9473621043780092,-0.1657181280973117,-0.9838277629004778,0.0054539913989584,-0.0071476303371908,-0.0148160766794767,2.8354297145174214e-07,-1.7609620331812086e-07,5.474055324920668e-07,11928,66.725346,73.019961,90.476133
-0.4751340193443755,0.0212837111227816,-1.0328915201206714,0.0054893750318993,-0.0074504821453636,-0.015659156156348,-2.218038121730918e-07,3.746237342870436e-07,-1.030157826462605e-07,11929,62.725564,71.868136,85.403859
0.0219684869229102,0.1675788372036659,-1.2162819623973762,0.0054828007788653,-0.0076266714432617,-0.0161761428198987,-7.600216096817531e-07,8.605857913483067e-07,-9.30044887811642e-07,11930,59.526385,70.603106,81.26381
0.297301998384545,0.3482632021211834,-1.404388701018278,0.005426566869702,-0.0076642429995231,-0.0163525676569808,-1.3539865911499378e-06,1.3984470520381474e-06,-1.8363513082712787e-06,11931,56.635254,69.298143,77.592378
0.5514091513115941,0.4603762624284582,-1.45768485409573,0.0053118429436816,-0.0075555427425614,-0.0161790623107182,-1.9410551791734987e-06,2.0034689947134037e-06,-2.628557971916669e-06,11932,53.75346,67.948047,74.055993
0.8561743669304196,0.4694809531894928,-1.3908878959948274,0.005119785184782,-0.0072957874634223,-0.0156666094187934,-2.455187945819819e-06,2.619745801461029e-06,-3.2000035307063354e-06,11933,51.011276,66.584002,70.700141
0.978454588977228,0.5070661504624159,-1.3060270556556344,0.0048411374175665,-0.0068875944976885,-0.0148207753540864,-2.835787586992669e-06,3.1468460093198223e-06,-3.51972996006297e-06,11934,48.639326,65.251373,67.653184
0.9201196987163548,0.5542864394677101,-1.222966901887593,0.0044777099758687,-0.0063439352009515,-0.0136422681355084,-3.032760739905736e-06,3.497931843813076e-06,-3.5708377874090912e-06,11935,46.941693,64.0087,65.080156
0.86974082820205,0.5386772290869106,-1.1396383526772067,0.0040255866884277,-0.0056876655798709,-0.0121559375689452,-3.1095170435722954e-06,3.722592503831783e-06,-3.4677515278377784e-06,11936,45.92521,62.912339,63.017817
0.8217878084388234,0.5251334319606071,-1.062946511119448,0.0034800211056953,-0.0049565405919546,-0.0104094412011341,-3.2155868430797515e-06,3.968054526208694e-06,-3.424829271763046e-06,11937,45.31696,61.98491,61.403341
0.7689254941774254,0.530885008417617,-0.9811758422503322,0.0028496803014686,-0.0041672028542703,-0.0084318713251996,-3.409302959452613e-06,4.294229368990814e-06,-3.515636242055515e-06,11938,44.663912,61.203107,60.125457
0.7373601250345594,0.5094885802725717,-0.89524586950644,0.0021573877934327,-0.0033139357591025,-0.0062378585124338,-3.6364909451574633e-06,4.647564740627539e-06,-3.660452176153423e-06,11939,43.899308,60.601463,59.187998
0.5563519998330986,0.4773820855671155,-0.7779496856038446,0.0014396214515996,-0.0023900542709826,-0.0038503077572706,-3.847642497441205e-06,4.968724461889867e-06,-3.8048101206062086e-06,11940,43.306514,60.219565,58.705572
0.1536807363895152,0.4559741324498896,-0.5883030228263868,0.0007541793096335,-0.0013767926881838,-0.0012924313396628,-4.008702247283346e-06,5.195073309393908e-06,-3.938598201225001e-06,11941,43.128175,60.076048,58.749792
-0.1910340692566774,0.4049755627783971,-0.3482656286896605,0.0001240018526634,-0.0002823236426821,0.0013727295305567,-4.047758125517326e-06,5.218030855688658e-06,-4.011342237095208e-06,11942,43.254567,60.173617,59.210843
-0.2665649057978703,0.2856727973640993,-0.1496321445956195,-0.0004654070877009,0.000853139874012,0.0040319947195094,-3.903016207372082e-06,4.959457587198558e-06,-3.96409820069796e-06,11943,43.564264,60.537408,59.973371
-0.2350509222181847,0.1403439718315118,-0.0406139591737901,-0.0010343038871098,0.0019818055595663,0.0065365998454183,-3.594791788524365e-06,4.4589435317943e-06,-3.800673340090819e-06,11944,44.287718,61.14732,61.108142
-0.2551788676463352,0.0468273930014115,0.108380625833398,-0.0016273092122254,0.0030330101364595,0.0086777266502393,-3.1564747407063395e-06,3.7904949379382433e-06,-3.5078207472235588e-06,11945,45.652003,62.034218,62.766295
-0.2938938284564663,0.0248050596543487,0.4056785389485363,-0.0022651424221085,0.0039571868517462,0.0103452809461361,-2.560849838945481e-06,2.963021942792226e-06,-2.995560649975382e-06,11946,47.595378,63.183815,64.975945
-0.4133171815972956,0.0274292798483208,0.6946782830485286,-0.0029416459073456,0.004727965106603,0.0115369836416423,-1.815090589766604e-06,2.0025493304467767e-06,-2.248931157886188e-06,11947,49.811706,64.533013,67.609525
-0.671809512466818,0.0140694202337072,0.7965802311438772,-0.0036629756592059,0.0053068928172303,0.0122661160713627,-1.014676609261529e-06,1.0073708616795876e-06,-1.3949715460956225e-06,11948,52.00437,65.930352,70.347159
-0.8313518209043835,0.0403658255053182,0.772976832466968,-0.0044353954683458,0.0056540993375797,0.0126148352024832,-2.5844914470000005e-07,8.044788636556795e-08,-5.647541417908654e-07,11949,54.189479,67.274698,72.996336
-0.6499033210832438,0.182591221318927,0.7539346524281824,-0.0052429424199472,0.0057602931910626,0.0126436597645904,3.756296602692698e-07,-6.752713144398683e-07,1.587418916988931e-07,11950,56.422936,68.471206,75.456477
-0.2983076866049396,0.3553568358812293,0.7611826496528986,-0.0060470975945711,0.0056489725803413,0.0123920991327426,8.24267943007819e-07,-1.1794332970253242e-06,7.020439500406328e-07,11951,58.283371,69.513509,77.53038
-0.0370287428402069,0.4106176829897371,0.7827748263091848,-0.0067836936648594,0.0053752328663094,0.011978858263528,1.0849294677764597e-06,-1.444253776905988e-06,1.0431119480243538e-06,11952,59.454965,70.48462,79.229568
0.1900456565127164,0.3663076121277579,0.8031315996283619,-0.0073502632260631,0.0050434717190099,0.0115951973697531,1.2042696833334916e-06,-1.5237303220851247e-06,1.2421143962822825e-06,11953,60.363893,71.414442,80.984425
0.4382349447248879,0.3221957491547542,0.7948961246445482,-0.0077000508673836,0.0047031710697416,0.0113257633572602,1.2346829306140552e-06,-1.4744939336350311e-06,1.3695945349065142e-06,11954,61.6154,72.292286,83.179113
0.5601800832809629,0.2940115273532558,0.771459483579103,-0.0078447846524308,0.0043481489300445,0.0111528588783609,1.2457396372718329e-06,-1.406988496541285e-06,1.4730160936808673e-06,11955,63.378717,73.106159,85.882946
0.542070656790756,0.2621236333825638,0.7496793189224742,-0.0078003529006459,0.0039835264353252,0.0110387518325834,1.305440112710376e-06,-1.4423768352072362e-06,1.5830978412809435e-06,11956,65.558533,73.820994,88.973769
0.5481162775490923,0.2158486905333867,0.7176098392917488,-0.0076159103487177,0.0035983202650409,0.010871643829857,1.4174853332944075e-06,-1.6070894274058371e-06,1.6744578375234395e-06,11957,68.050372,74.417545,92.30423
0.5991075095703429,0.1373206196445926,0.6781909814955694,-0.0073172397871462,0.0031918372215777,0.0105975445767955,1.5351738381748038e-06,-1.822472995768953e-06,1.717422727487645e-06,11958,70.77646,74.891122,95.74033
0.5995605141481889,0.0428433514876606,0.6589192847008246,-0.0069034514144684,0.0027792228139475,0.0102243446717934,1.6430294478456129e-06,-2.019281950759005e-06,1.75872018360856e-06,11959,73.586891,75.265023,99.136504
0.5304163428776041,-0.0117547107569527,0.6728693671627632,-0.0064006375490706,0.0023567179767487,0.0097094604074576,1.777238656109057e-06,-2.228605241094225e-06,1.855798813894808e-06,11960,76.302657,75.555774,102.348201
0.4230217461538083,-0.0110791610624673,0.6785618221327661,-0.0058506462906249,0.0019071890925801,0.0089871798902739,1.9556122253936104e-06,-2.49764078741139e-06,1.991044699979512e-06,11961,78.817489,75.791286,105.308498
0.3340441481193393,-0.052399655430529,0.6457713380900308,-0.0052744572610934,0.0014199813395026,0.0080297654068541,2.1498689286415384e-06,-2.810970421442551e-06,2.104821750832784e-06,11962,81.049851,75.992856,107.989545
0.2826178914612337,-0.2478667631270451,0.6228248998635258,-0.0046770054747303,0.0008855210139684,0.0068383425771365,2.345475926122245e-06,-3.14090037733308e-06,2.198009144854847e-06,11963,83.076997,76.16765,110.427459
0.2335076759719644,-0.5289874269788134,0.6291737164508089,-0.0040574217977748,0.0002869705066385,0.0054332998708002,2.555125647003288e-06,-3.480754715096736e-06,2.319535951002746e-06,11964,85.097863,76.312812,112.73185
0.1778982190174805,-0.707863008531205,0.6165737553095273,-0.0033994109895277,-0.0003983604614093,0.0038721656080178,2.77812652514183e-06,-3.840055434145379e-06,2.4539561566093787e-06,11965,87.051317,76.411271,114.774919
0.0976131882608258,-0.7324144024888255,0.5736205985862977,-0.0027059503448958,-0.0011713522263977,0.0021886591813955,2.9921459938191715e-06,-4.21303170697652e-06,2.5438148160448416e-06,11966,88.483715,76.466992,116.187427
0.0098450612200274,-0.7100496710979851,0.5117229416378541,-0.0020007502937979,-0.0020085903859849,0.0003952120185629,3.1649421086331764e-06,-4.546259700343014e-06,2.5719102903253942e-06,11967,88.971066,76.495747,116.601536
-0.0318144723103708,-0.7248571765366355,0.4609562938755464,-0.0013046522019053,-0.0028723324928628,-0.0014691030547374,3.2612129883577743e-06,-4.768333584567347e-06,2.5383709632281766e-06,11968,88.672257,76.524675,116.179458
-0.1866179013755642,-0.7710599586685567,0.4460556689791974,-0.0006454622567066,-0.003697988092657,-0.0033483413394171,3.228685815066549e-06,-4.792775717755382e-06,2.4138684872982653e-06,11969,87.807395,76.443919,115.116065
-0.6409584402111637,-0.7907533977282512,0.3060882941705805,-4.1506567965305394e-05,-0.00445488617596,-0.0051929188588712,3.005842030852176e-06,-4.515877521743043e-06,2.1670880734931013e-06,11970,86.064157,76.188254,113.280772
-1.1198619082306227,-0.7534516509601837,-0.109743280149652,0.0005013333122628,-0.0051484768086209,-0.0069523541766168,2.596866568011329e-06,-3.9069067430409255e-06,1.8540331734972485e-06,11971,82.808549,75.821296,110.144222
-1.248938157320553,-0.7027118295327178,-0.5666809645345636,0.0009746398244294,-0.0057807303785865,-0.0085659440447463,2.106409500275649e-06,-3.086232969291656e-06,1.604028024615437e-06,11972,78.120779,75.433895,105.5171
-1.1153523196090578,-0.6381356695542856,-0.7546196758732472,0.0013729129476835,-0.0063676778597257,-0.0099636631931306,1.6551452013670295e-06,-2.280252940341508e-06,1.4431500263080542e-06,11973,72.732647,74.980092,99.810435
-0.8645710484682387,-0.522207158257367,-0.7385055153047303,0.0016888543081269,-0.0069049058527401,-0.0111013455806413,1.2792925145263765e-06,-1.6537124885025014e-06,1.2477273059103467e-06,11974,67.918382,74.330539,94.126369
-0.4157254810104772,-0.3845261880127602,-0.7477361890657317,0.0019119791657027,-0.0073622620270565,-0.0119632788424372,9.388719086534288e-07,-1.1885490317395271e-06,9.345600258820008e-07,11975,64.123345,73.399048,89.173829
0.0994442427056553,-0.2091197760003573,-0.8655399247114961,0.0020355682583221,-0.0077128384776963,-0.0125478330523832,5.953791680344368e-07,-7.842545750127317e-07,5.353912901626938e-07,11976,61.154668,72.232413,85.145282
0.377773786847032,0.0509496665181469,-1.0378134406845678,0.00205556405261,-0.0079214676256922,-0.0128821419486224,2.2286272384170278e-07,-3.650486231770969e-07,7.879400752454934e-08,11977,58.4212,70.932951,81.625203
0.4035572755424626,0.2917541290863218,-1.146985354176564,0.0019665545345765,-0.0079687366611921,-0.0129612297916888,-2.1905355556383698e-07,1.6006492335755085e-07,-4.259890691672972e-07,11978,55.685464,69.550609,78.275351
0.3858947247154944,0.3842396273564116,-1.1647791328273618,0.0017628297923882,-0.0078556134588481,-0.0127461639782474,-7.380265858453804e-07,8.54217763116626e-07,-9.140552258898012e-07,11979,52.96821,68.172405,74.993078
0.4462253777008002,0.3823906213106633,-1.1852694741517182,0.0014400064955305,-0.0075842126515161,-0.01220631961177,-1.2729410609179751e-06,1.6576713784157117e-06,-1.2980068312001685e-06,11980,50.329398,66.808595,71.832186
0.5418077631038498,0.3820774513769048,-1.208506728798299,0.0009946933669251,-0.0071670864138852,-0.0113031301114862,-1.7523258319822932e-06,2.4314823605546434e-06,-1.5711200404849257e-06,11981,48.010978,65.49959,68.936799
0.5736373624862328,0.3868631405476251,-1.1638244870587318,0.0004286762419356,-0.0066193043438049,-0.010028789663439,-2.1393807209051696e-06,3.066963117234112e-06,-1.779604339545231e-06,11982,46.245393,64.291639,66.418665
0.5273014245494245,0.4026934802516668,-1.075068017503853,-0.0002496886187618,-0.0059590695020971,-0.0084152284342575,-2.424449750749397e-06,3.549069135209834e-06,-1.9145935476960174e-06,11983,45.168837,63.224346,64.380069
0.4807503008951432,0.4310635793271409,-0.9973220819160642,-0.0010260283492096,-0.005222692038883,-0.0065086069512616,-2.6265242627398078e-06,3.915863429813818e-06,-1.9728955654965965e-06,11984,44.604713,62.314244,62.858541
0.4617776503206051,0.4366971957152681,-0.9314232822942168,-0.001876691534528,-0.0044669077859309,-0.0043878834651105,-2.8029848418805785e-06,4.220593805859463e-06,-2.039107271280738e-06,11985,44.300975,61.59147,61.833473
0.4038959094301787,0.4124479134282055,-0.8395250915126236,-0.0027689716688707,-0.0037139472014846,-0.0021053124977368,-3.028386161614484e-06,4.551554687609165e-06,-2.202221243586227e-06,11986,43.928052,61.070617,61.180806
0.2721032728284925,0.3904928762259688,-0.7113069243748995,-0.0036573964802408,-0.0029504233934448,0.0003149180720987,-3.3248065679365293e-06,4.94463078251978e-06,-2.4777821444368223e-06,11987,43.375254,60.753319,60.850842
0.1268071142042069,0.3795793866607314,-0.5628391398186974,-0.004475858523075,-0.0021545040639316,0.0028290665914541,-3.621179988592481e-06,5.303433861962167e-06,-2.799315494155956e-06,11988,42.873426,60.640025,60.918658
0.0614063198869056,0.3293938874256312,-0.3807990275501669,-0.0051310542934072,-0.0012776866065586,0.0053868474024883,-3.808444046157231e-06,5.482127874084288e-06,-3.062446029048852e-06,11989,42.796768,60.781835,61.522549
0.077503724187086,0.2333814579879658,-0.1719997496812529,-0.0055887876959339,-0.0003210243906429,0.0079072806833779,-3.802638483380755e-06,5.368165046853452e-06,-3.192935890382465e-06,11990,43.387879,61.180137,62.728728
0.0361653089585529,0.1694092176795218,0.0602284386033326,-0.0058794697071513,0.0006577211337226,0.0102661542493852,-3.5642155872908e-06,4.909817417957117e-06,-3.1550140386349204e-06,11991,44.596889,61.888479,64.542947
-0.1651139745907152,0.1639290329312846,0.3553659463166165,-0.0060559682657319,0.0015911095335673,0.0123072445736729,-3.118859590224017e-06,4.150426988264635e-06,-2.954080715364256e-06,11992,46.477506,62.868545,67.013717
-0.4470997155113017,0.1667616611898571,0.646925299154688,-0.0062261805190792,0.0023746705265499,0.0138220271171559,-2.5418070422977608e-06,3.207094238092184e-06,-2.6336031291722326e-06,11993,48.739696,64.053781,69.917119
-0.6762998623878254,0.1568045837879193,0.789445199643293,-0.0064346914086668,0.0029584342328663,0.0147193890157068,-1.8898093776224533e-06,2.183979517945901e-06,-2.2143602788121204e-06,11994,51.076764,65.308017,72.936835
-0.7855504381798236,0.1426519765275433,0.7831242881934886,-0.0066572258125076,0.0033551782605726,0.0150399039858776,-1.1916578250051027e-06,1.1570574234013203e-06,-1.6768241049231977e-06,11995,53.499995,66.539747,75.900091
-0.7480636516074011,0.1260871017078987,0.7546932717832977,-0.0068850080077847,0.0035766437259935,0.014867987600861,-5.115584565546861e-07,2.3343474967768077e-07,-1.047448540051158e-06,11996,56.161568,67.653891,78.811105
-0.5817140903095463,0.1292616775542339,0.7875721189103011,-0.007092113707419,0.0036632467163345,0.0143975008369853,4.6494909425236574e-08,-4.6313758078773525e-07,-4.4375903709726294e-07,11997,58.722097,68.598122,81.539048
-0.2819590457280793,0.1470571840751539,0.8765191366890712,-0.007263075054001,0.0036382777231966,0.0137324188462772,4.342184277426629e-07,-8.992254943473116e-07,3.69409970613783e-08,11998,60.728296,69.425102,83.983499
0.1864370061843478,0.1512404431684116,0.9428690684978328,-0.0074002262844011,0.0035037202471719,0.0128825925315638,7.114372821223711e-07,-1.183839150925793e-06,4.069020861597349e-07,11999,62.211764,70.209869,86.245149
0.6467130972170193,0.1867804016833906,0.9252226984134114,-0.0074839155020844,0.003289621953233,0.011923601692249,9.543414261973263e-07,-1.4329715280861222e-06,7.265818318504885e-07,12000,63.67654,70.987627,88.547572
0.8158244137623201,0.26536441226898,0.8846819045507535,-0.0074785077027741,0.0030457680018002,0.0109535459223212,1.1773096177619711e-06,-1.6491068313032405e-06,1.0395388368951266e-06,12001,65.413419,71.764609,90.968116
0.7373543412355253,0.2800595910925352,0.8786089871162372,-0.007371719582545,0.0027937553713896,0.0100300243945024,1.3874609963569694e-06,-1.836690833664912e-06,1.3579765698252733e-06,12002,67.393835,72.504538,93.444419
0.6556373234184535,0.2022292409033743,0.8680468587620338,-0.0071715248876528,0.0025307494260495,0.0091833717574034,1.610955382205697e-06,-2.064565324405723e-06,1.6571953857024837e-06,12003,69.561264,73.15619,95.941513
0.6157812730074426,0.1373969383903587,0.8310482112676447,-0.0068920284420242,0.0022466959783185,0.0084154216168387,1.8380651786579349e-06,-2.3353732263327177e-06,1.908464424939202e-06,12004,71.731881,73.687761,98.395009
0.5636828410342848,0.1228278169947265,0.7781071313363817,-0.0065646857378828,0.0019106541292113,0.0076807328764447,2.0358487266734827e-06,-2.5771889188427774e-06,2.1224794970599306e-06,12005,73.697079,74.102515,100.699203
0.5270361881001242,0.1142350476410544,0.7218167249491667,-0.0062090024452228,0.0015097678464589,0.0069590145723343,2.2187963694264587e-06,-2.787673694492297e-06,2.3426924307533857e-06,12006,75.441546,74.400101,102.797336
0.4725154189601003,0.101173025087991,0.6893747817405883,-0.0058324643542886,0.0010500739049456,0.0062493526509812,2.433844530287138e-06,-3.040923744224129e-06,2.595517758788504e-06,12007,77.032924,74.607258,104.640765
0.3074510583032345,0.0659255325908742,0.6811067507590618,-0.005455191000995,0.000525762684612,0.0055133270066276,2.674731858496332e-06,-3.3339633335998887e-06,2.867047061489603e-06,12008,78.466519,74.775366,106.215941
0.0951166196345602,-0.0070570647688536,0.6537740395160991,-0.0051045982403201,-7.22080611591867e-05,0.0046839243187319,2.8832573618191806e-06,-3.562336687961033e-06,3.1403662499019744e-06,12009,79.711008,74.926578,107.524599
-0.0115936224708633,-0.0704552279470193,0.5968439637188419,-0.0047957228048171,-0.000747474518097,0.0037357214255991,3.0257305077456947e-06,-3.67178178720222e-06,3.393359502395399e-06,12010,80.901759,75.06356,108.65449
-0.0234673089805069,-0.0926976241121025,0.5510478832641048,-0.0045328450109124,-0.0015011068594558,0.0026814157426221,3.107425939373811e-06,-3.7044472851332814e-06,3.5756017961801333e-06,12011,81.943012,75.180278,109.582748
-0.033188214797263,-0.0935610766890174,0.5182407065300738,-0.0043149939837054,-0.0023297027858415,0.0015430279627291,3.141875845676931e-06,-3.696230940496673e-06,3.675172654986963e-06,12012,82.550408,75.2645,110.10822
-0.0608244546826104,-0.1063369103218463,0.4817170846676356,-0.0041298097348237,-0.0032231504425127,0.0003726514163256,3.1359768135621277e-06,-3.6343387854891103e-06,3.734614127088292e-06,12013,82.412402,75.310964,109.984846
-0.163780579921284,-0.179484546496127,0.4348138038568719,-0.00397070296455,-0.0041621629385942,-0.0008073675923764,3.085010178029278e-06,-3.5071492729504373e-06,3.759948125123133e-06,12014,81.391905,75.309992,109.10274
-0.3882347462473434,-0.3244021554006029,0.352052835179835,-0.0038360751753616,-0.005114666789052,-0.0020067940930666,2.9650035814945903e-06,-3.316515029005857e-06,3.6838462492613534e-06,12015,80.011406,75.278177,107.856945
-0.6758247073895522,-0.496619955486768,0.2597844961338578,-0.0037144083060353,-0.0060312916847447,-0.0032213345882714,2.73428204794871e-06,-3.0411589940542727e-06,3.4214659443620823e-06,12016,78.966588,75.130717,106.77357
-0.9749829217697864,-0.6516672971769466,0.1298437270318974,-0.0035864121218229,-0.0068388440306903,-0.0044473805512749,2.3638047941557117e-06,-2.6256559216442183e-06,2.966584811965532e-06,12017,78.126238,74.788377,105.863399
-1.2038398384516564,-0.7347444358925996,-0.1858812365619382,-0.0034450607593598,-0.0074992185028235,-0.0056719865272527,1.8480699790966437e-06,-1.9994803639709904e-06,2.39533126127023e-06,12018,76.462028,74.239329,104.308513
-1.2410377070655234,-0.7314306296208777,-0.6010148786841867,-0.0032948861726966,-0.0080110550802668,-0.0068662106336161,1.2180636128481283e-06,-1.1728590938920684e-06,1.7762330746384167e-06,12019,73.487344,73.618608,101.512047
-1.1358346992036257,-0.6892599002556523,-0.7920285748887473,-0.003143832518809,-0.0083763370533539,-0.0079982750008893,5.863838277033756e-07,-3.364206961668933e-07,1.1617560509247455e-06,12020,69.655953,72.988615,97.664362
-1.0090260508721394,-0.5748707486806646,-0.7508798174485662,-0.003009481499023,-0.0086188038188432,-0.0090269664567156,8.106109704907904e-08,2.782901283077892e-07,5.912987078992568e-07,12021,65.845437,72.285539,93.48754
-0.8116241558505144,-0.3401522813540094,-0.7751050614273107,-0.0029016711355917,-0.008746000282023,-0.0099118801375723,-2.9032435941869935e-07,6.362884779866843e-07,4.261222395638355e-08,12022,62.863356,71.462453,89.773886
-0.5655642438586262,-0.0811945560164842,-0.9094051697528668,-0.0028221927905377,-0.0087471815595403,-0.0106131665100342,-6.25408209064355e-07,8.762359035761287e-07,-5.564484007173618e-07,12023,60.856634,70.529754,86.809873
-0.3656364793278774,0.1035361585611116,-1.0056978172989957,-0.0027789000521981,-0.0086282042954322,-0.0110781828180919,-1.0181969318159005e-06,1.1416243429678133e-06,-1.2710810868767551e-06,12024,59.174074,69.513793,84.24739
-0.0101041461236488,0.216799458758823,-1.0992209916377456,-0.0027820707259819,-0.0084037063516867,-0.0112413004928445,-1.5293219041011943e-06,1.568992300142808e-06,-2.0935249924530872e-06,12025,56.889199,68.431887,81.508414
0.5988361116390277,0.2701655864247603,-1.2412680663079696,-0.0028373017585553,-0.0080790332051881,-0.0110627223387156,-2.1810078961092323e-06,2.284337638179689e-06,-2.9193775635958805e-06,12026,53.965463,67.307233,78.458517
1.0665317078780383,0.3010691028536351,-1.321665574736994,-0.0029465603952857,-0.0076539330642626,-0.0105296119300552,-2.878086980739748e-06,3.201395449959782e-06,-3.602672680987942e-06,12027,50.955817,66.177661,75.287662
1.1189183268972291,0.3560977864452627,-1.2730013681014274,-0.0031088542840901,-0.0071265966932043,-0.0096387747566466,-3.404641327948693e-06,3.973390334076816e-06,-4.019378628087145e-06,12028,48.360251,65.094757,72.285133
0.9840434972666532,0.3872641197089599,-1.173667512636425,-0.0033179746069139,-0.0064898259690152,-0.0084105752263509,-3.613205711785784e-06,4.329573014966152e-06,-4.1303078777547264e-06,12029,46.411097,64.121211,69.670956
0.916883531045168,0.3613621309735694,-1.093621419920516,-0.0035696348640463,-0.0057512948563079,-0.0068658326644569,-3.547541465716337e-06,4.3162984129262655e-06,-3.985124132567558e-06,12030,45.229315,63.28449,67.633024
0.877268151000844,0.3230091043163419,-1.0216099360259026,-0.0038607658703694,-0.0049356809526882,-0.0050291683897527,-3.3421484547194854e-06,4.13071155000208e-06,-3.6771618315239774e-06,12031,44.667255,62.622842,66.193585
0.7489358848221989,0.2664547089395361,-0.9459108854923396,-0.0041832802570841,-0.0040743260262141,-0.0029581533603334,-3.1187421767763065e-06,3.908577024272627e-06,-3.360039588447637e-06,12032,44.484832,62.168808,65.307819
0.5292291632776216,0.182910132099886,-0.87277576952114,-0.0045245750455818,-0.0032135520711829,-0.0007461306674285,-2.966417365400142e-06,3.73487825620002e-06,-3.1723315616707253e-06,12033,44.380385,61.923963,64.859375
0.3395549487272878,0.120156517092874,-0.786012046211538,-0.0048786536566589,-0.0023802182971543,0.0015331632829311,-2.9093032450302544e-06,3.6684628108879943e-06,-3.100863275551088e-06,12034,44.307496,61.87911,64.826895
0.2567177508033673,0.0835296047563188,-0.6413860915403968,-0.0052458715908701,-0.0015798076866832,0.0038190100817075,-2.879249105210011e-06,3.647509027580301e-06,-3.037780452950125e-06,12035,44.491901,62.034673,65.258238
0.1792781015299458,0.0448496204401177,-0.4518671262237718,-0.0056277955185035,-0.0008196039041232,0.0060267531997008,-2.748870069891906e-06,3.480639162980783e-06,-2.8918624263386904e-06,12036,45.142172,62.409946,66.17857
0.1192528388665599,0.0156130141939783,-0.2726459268953196,-0.0060305605565468,-9.83942605636088e-05,0.0080549033147759,-2.4216936928383945e-06,3.0154367719553736e-06,-2.6078334502851967e-06,12037,46.370685,63.007265,67.572529
0.1335559704709198,0.0181830003635757,-0.044558966683994,-0.0064562669262063,0.0005734898431638,0.0098179895264787,-1.8910380473549928e-06,2.2576252409759195e-06,-2.1610471488816737e-06,12038,48.119465,63.817725,69.417863
-0.0259300575517605,0.0232162865497806,0.2639492958938286,-0.0069026293537131,0.0011712115696799,0.011242684775414,-1.2085567061934069e-06,1.301526458920066e-06,-1.562075464556209e-06,12039,50.521923,64.817412,71.872568
-0.4369098822198591,0.0070398385064239,0.4909144702005861,-0.0073700433939795,0.0016726213861724,0.012253938320383,-4.472775019829959e-07,2.394120131449929e-07,-8.862397102390849e-07,12040,53.399335,65.900807,74.882747
-0.7399424085749098,0.0457463510440105,0.5598266241388854,-0.007859615845868,0.0020518147773409,0.0127822508438366,2.9532662987608945e-07,-7.901537255469877e-07,-2.199412433812883e-07,12041,56.428527,66.960274,78.191512
-0.75863998974973,0.1866399683454657,0.5889100070788422,-0.0083681013347202,0.0022945642574451,0.012821864927092,9.056894467661556e-07,-1.565125938417232e-06,4.215114913453522e-07,12042,59.164915,67.920478,81.303634
-0.6622115022234518,0.3243488647452222,0.618407364934033,-0.0088879214530272,0.0024017758849457,0.0124437043123205,1.3127498059200716e-06,-1.952044302265102e-06,1.0236853062989523e-06,12043,61.344807,68.781623,83.840175
-0.5825771559997747,0.3709565778053183,0.6454900993046173,-0.0094074540593794,0.0023787387074389,0.0117888266026199,1.5369274560950592e-06,-2.0272366111368155e-06,1.5389626771312391e-06,12044,62.729546,69.581425,85.609209
-0.4929959576715301,0.3740756614662198,0.7606923462437325,-0.0099086298857973,0.0022421856608225,0.011107800233345,1.6381111569369818e-06,-1.918630687257136e-06,1.9567450242329558e-06,12045,63.442277,70.325251,86.811021
-0.2418758610578219,0.3757851507284583,0.9346132050882736,-0.0103699362727968,0.0020072239195788,0.0105178673419591,1.6561990445043512e-06,-1.6977338855118517e-06,2.2898077934173885e-06,12046,63.905752,71.048574,87.901913
0.2277686539601687,0.352587574212568,1.018817605082739,-0.0107643629654246,0.0016882344614642,0.0099982988135667,1.637311459355728e-06,-1.450111862872507e-06,2.554391200182056e-06,12047,64.606806,71.749442,89.23314
0.6067889828147364,0.3103898648134333,1.0036648942015398,-0.0110532487037412,0.0013140380342807,0.0095429584647138,1.637987680627582e-06,-1.2731805916978482e-06,2.7796216837708707e-06,12048,65.613401,72.422084,90.832989
0.6292214288633227,0.2775300683058969,0.974355545839551,-0.011183408524407,0.0009280033057231,0.0090922257199134,1.6700629704588615e-06,-1.1782428592911834e-06,2.983477606941937e-06,12049,66.817359,73.052964,92.581975
0.4996177596262303,0.2496652045491929,0.9546710683576198,-0.0111339230255599,0.0005516483587488,0.0086343165691135,1.7005562601728784e-06,-1.097148581577247e-06,3.166358616534217e-06,12050,68.178477,73.624342,94.406217
0.4422885631197094,0.208732202226748,0.9256070081950682,-0.0109190117987319,0.0001848432729778,0.0082193303209294,1.7193957036727337e-06,-1.020835860444052e-06,3.313651276462878e-06,12051,69.6864,74.114126,96.306844
0.4081717440850182,0.1529277988598969,0.87910173610019,-0.0105657662014727,-0.000176512526818,0.0078558500156391,1.7532116041913909e-06,-1.0061625493533809e-06,3.4244559736762604e-06,12052,71.323883,74.521369,98.245249
0.3738696056043117,0.1086380010345167,0.8217667802597612,-0.0101319262384746,-0.0005517546068505,0.0075363401915332,1.8189451132447723e-06,-1.0625475184329033e-06,3.533540352036842e-06,12053,73.054928,74.833741,100.134396
0.3569173930528715,0.0908187088320926,0.76452333089752,-0.0096473603469727,-0.0009498203968591,0.0072470608201883,1.9135776237038044e-06,-1.1663074620936995e-06,3.6632257472852983e-06,12054,74.762719,75.044954,101.874036
0.2837838657655038,0.0772374601996048,0.71080989658529,-0.0091126059868111,-0.0013686193654335,0.0069520529526796,2.027842666834465e-06,-1.3083168225070331e-06,3.798327792019362e-06,12055,76.244909,75.178968,103.360204
0.1332570279234157,0.0565841134305861,0.658299381754528,-0.0085437557235508,-0.0018179645194799,0.0066001592414489,2.1422565063621432e-06,-1.4717799570412773e-06,3.903522108786676e-06,12056,77.470999,75.252479,104.621365
-0.0045147388280042,0.0274880401731239,0.6041441292207085,-0.0079587887519463,-0.0023148270081601,0.0061167746519333,2.2201332163788926e-06,-1.6079020046754151e-06,3.940232645115906e-06,12057,78.558047,75.282426,105.753345
-0.0784510518050036,-0.0155187289698695,0.5376548973008838,-0.0073709500930812,-0.0028638310947827,0.0054662638873507,2.2197378490519342e-06,-1.6493850653993855e-06,3.884935107418335e-06,12058,79.563422,75.273171,106.768556
-0.1237597553343163,-0.0468308575691248,0.4563496590532944,-0.0067928766477378,-0.0034586943800312,0.0046561102759189,2.129021618955306e-06,-1.5625750293022108e-06,3.751928417157069e-06,12059,80.450305,75.216115,107.614211
-0.1585209107868927,-0.0688513913986361,0.3759148210049431,-0.00622984082036,-0.0040879445433404,0.003700185226143,1.9810796691894578e-06,-1.3685198150426774e-06,3.608292982074156e-06,12060,80.99199,75.117228,108.12548
-0.1611527984617828,-0.1466938826335607,0.2884888797458518,-0.0056779838483099,-0.0047287672574283,0.0026401493240275,1.8208797061200767e-06,-1.1132048358989167e-06,3.521106919482821e-06,12061,81.000136,74.99698,108.147269
-0.1349323830280148,-0.2800627789032138,0.1724581206609015,-0.0051380389160061,-0.0053632058085969,0.0015033288942185,1.664879064564368e-06,-8.395430029710931e-07,3.47869666014904e-06,12062,80.595036,74.895294,107.723716
-0.168738482166974,-0.4059771603886903,0.0863037890402911,-0.0046134257943494,-0.005977239514548,0.0003019317277226,1.4961196430112322e-06,-5.772298531760254e-07,3.388895599223664e-06,12063,80.227124,74.792891,107.226997
-0.4070224650686832,-0.5124036931688868,0.0582655484504067,-0.00410078034578,-0.0065461109246268,-0.0009250986597389,1.2767436225616924e-06,-3.015783573486611e-07,3.1737940840787115e-06,12064,80.016053,74.602806,106.770631
-0.7885278453550781,-0.5870267701701369,-0.0912550326088343,-0.0035913349658094,-0.0070359406833585,-0.002118086477062,9.604106942554975e-07,8.66704697673954e-08,2.8384426346080757e-06,12065,79.508466,74.266322,106.012602
-1.028638279957003,-0.5992304841500801,-0.4553449890828828,-0.0030834767396539,-0.0074265288747112,-0.0032345255739373,5.240000236237035e-07,6.479902862327768e-07,2.4014091506098967e-06,12066,77.977343,73.838716,104.21581
-1.0367685432378089,-0.563989003522287,-0.7922814843747754,-0.0025821024778289,-0.0077106783844741,-0.0042437439406393,6.170094736119914e-09,1.3161326895872495e-06,1.87704887313161e-06,12067,75.312162,73.385584,101.167491
-0.91198070958085,-0.4969421007933846,-0.9053279927870956,-0.0020930389159084,-0.0078841982298061,-0.0051095688351491,-5.171207268017716e-07,1.992013629788421e-06,1.3427676369210912e-06,12068,72.083802,72.871667,97.367746
-0.633231371382281,-0.4076172333979677,-0.8921544953015784,-0.0016265754256175,-0.0079528361562591,-0.0057973931924014,-1.0184877666308955e-06,2.6546577735767e-06,8.543359155171093e-07,12069,69.251879,72.225307,93.710411
-0.2031260118734793,-0.3266088413112943,-0.907685730686844,-0.0011860747669078,-0.0079146234611255,-0.006291069789818,-1.5248878834354795e-06,3.3146985373902e-06,3.568022942134524e-07,12070,67.244405,71.461844,90.7755
0.1821615578984073,-0.2566376849364676,-1.0182840301095823,-0.0007669874778873,-0.0077594520246958,-0.0065954295932609,-2.0351571873051087e-06,3.921133292127077e-06,-2.1779889573072645e-07,12071,65.624649,70.619282,88.355773
0.3315308493717702,-0.2017297560639196,-1.1984852513237327,-0.0003646221069997,-0.0074839146645551,-0.0067372258896834,-2.5189008159890704e-06,4.424436789666122e-06,-8.571970314709856e-07,12072,63.913552,69.768516,86.010726
0.3110157321028198,-0.1953457232907668,-1.324422645012356,2.9581740171004227e-05,-0.0070876874353295,-0.0067764200805001,-2.9691812699618974e-06,4.863290989295408e-06,-1.4937219458910362e-06,12073,62.209085,68.942855,83.609173
0.3794180209282789,-0.2206099307232846,-1.323888452840028,0.0004178381738922,-0.0065715685226352,-0.0067318220313972,-3.3892760436418027e-06,5.284717573099329e-06,-2.0749688351415894e-06,12074,60.83953,68.177734,81.29597
0.5892238419332263,-0.2176467526090551,-1.2586233394515238,0.0007947065925684,-0.0059399301491965,-0.006579930300652,-3.771622792393981e-06,5.664468187098576e-06,-2.6130084972756474e-06,12075,59.81228,67.482433,79.134625
0.7160053206503942,-0.1688766489179905,-1.1828901469763724,0.0011545288743529,-0.0052005043602575,-0.0063007945685372,-4.103950302004648e-06,5.955569131579976e-06,-3.1367143630189063e-06,12076,58.796151,66.847855,77.021244
0.6685333882386187,-0.1122538421491134,-1.0954498814964986,0.0014878543322012,-0.0043657498553297,-0.0058570863164544,-4.358982428108662e-06,6.139819717065554e-06,-3.595582965924476e-06,12077,57.645239,66.300719,74.872564
0.5700314811924412,-0.0946830631483809,-1.013734588852995,0.0017856725645383,-0.0034603947065171,-0.005243420927445,-4.488696754958711e-06,6.191271991597775e-06,-3.892472792607338e-06,12078,56.56496,65.863418,72.752264
0.471509581868269,-0.1151570214500865,-0.955627131189253,0.0020394993688646,-0.00252482210971,-0.0044938765031701,-4.462886620462989e-06,6.053726125746163e-06,-4.019491087890742e-06,12079,55.995688,65.561694,70.901202
0.3811780543804963,-0.1625126990914928,-0.8450126208436206,0.002235511932816,-0.0016171941530321,-0.0036452169692907,-4.326186695741744e-06,5.733713007658198e-06,-4.09202003003167e-06,12080,56.205343,65.409866,69.519891
0.3494823591869522,-0.2888385447979072,-0.5905529873746117,0.0023545283013428,-0.0008213866955344,-0.0027550509547129,-4.179617857513084e-06,5.35282822832456e-06,-4.224006579413105e-06,12081,56.918631,65.418449,68.58885
0.3072757381722429,-0.4710378134908799,-0.2768642885402736,0.002402321716439,-0.0001721321746119,-0.0018716608603455,-4.098101132838568e-06,5.035680437688936e-06,-4.445909730859765e-06,12082,57.51932,65.533319,67.903481
0.1826112473354859,-0.5461664565312583,-0.041152389351709,0.00241292945599,0.000349362798543,-0.0010324817907412,-4.107065742222216e-06,4.798612696102973e-06,-4.798172777014639e-06,12083,57.759086,65.714403,67.390326
0.0672718233410036,-0.5135089385284148,0.1502935539688494,0.002438023718303,0.0007760706821883,-0.0002970152372605,-4.175800287248025e-06,4.546890040015625e-06,-5.326082899573504e-06,12084,58.014733,65.929475,67.134101
0.0316577533876714,-0.5759062028864956,0.3906085647432008,0.002561303748963,0.0011819494224267,0.0002572605958368,-4.198656200827453e-06,4.127469295412072e-06,-5.950186672511683e-06,12085,58.714062,66.18004,67.235247
0.0359297721220732,-0.750074199012744,0.6669631681961953,0.0028229910319806,0.0015970248771351,0.0005753648096049,-4.081352844505651e-06,3.432206575776862e-06,-6.5586217339441226e-06,12086,60.059972,66.492684,67.824746
0.0334684812852539,-0.8386161219777478,0.8868817652487948,0.0032166654894354,0.0020030872401459,0.0006221082756782,-3.834590586655067e-06,2.508410737426612e-06,-7.120101097766676e-06,12087,62.028406,66.892908,68.968636
0.0200449306436854,-0.7761337753148525,0.9620397836857068,0.003736884484864,0.0023975008411177,0.0003645734263412,-3.5330275762269773e-06,1.5461682350303418e-06,-7.588719992214254e-06,12088,64.099617,67.390871,70.258783
0.0054812950576284,-0.6802070141145904,0.9100656062282624,0.0043563854900058,0.0027706948967511,-0.0002170265782876,-3.230638166774641e-06,7.181010223527548e-07,-7.881850713073335e-06,12089,65.541926,67.912432,70.91728
-0.0126613947352264,-0.6260210670105482,0.8464011772512,0.0050595551719323,0.0031222713614468,-0.0011043431658734,-2.9247088138882443e-06,3.8715318849695584e-08,-7.970314898810454e-06,12090,66.10518,68.361179,70.518165
-0.0160744424298241,-0.5873382638535114,0.808166301971679,0.0058451200623773,0.0034681229973268,-0.0022320115203645,-2.6001069992267698e-06,-5.739354755100829e-07,-7.922373735891352e-06,12091,66.458589,68.659238,69.338669
0.0233020458297051,-0.5254882655755742,0.7631400110985092,0.0066891630715039,0.0038165328096028,-0.0034790361579584,-2.285331714853908e-06,-1.153077842007254e-06,-7.86263779217515e-06,12092,66.800075,68.808582,67.694096
0.0877936969324938,-0.422022714696543,0.7211142872976054,0.0075505008504022,0.0041742284386618,-0.0046442328098514,-2.019007529968705e-06,-1.6929090129987065e-06,-7.887295808521733e-06,12093,66.796531,68.873801,65.781251
0.1393008077069311,-0.317761097383689,0.6251251248999101,0.0084090764234571,0.0045504407781795,-0.0056352961073925,-1.812925172166313e-06,-2.212310020240396e-06,-8.05012426582374e-06,12094,66.360802,68.929137,63.757556
0.1681482564818628,-0.280123908446853,0.3770377725001611,0.009262608933453,0.0049543295490492,-0.0064730878823001,-1.651003663415506e-06,-2.725474379223177e-06,-8.326916790723129e-06,12095,65.84577,68.978324,61.725212
0.1747777202051544,-0.2829874733448793,0.0549401192012573,0.0101109735258618,0.0053980338802452,-0.007180136595869,-1.4842989982364055e-06,-3.21344388251017e-06,-8.560207592599024e-06,12096,65.485905,69.016944,59.608128
0.1498868271731993,-0.2533272825588086,-0.1514796329593761,0.0109661294066722,0.0058973021217402,-0.0078370616303695,-1.2617864173813955e-06,-3.665691808964503e-06,-8.593500612215111e-06,12097,65.272263,69.071844,57.326305
0.1065114628713656,-0.1890107200278578,-0.1985780453091865,0.0118255392499172,0.0064555673272357,-0.008457305640693,-9.454952332585572e-07,-4.1337106364672055e-06,-8.388066974071003e-06,12098,65.058821,69.170621,54.831469
0.0835755204414148,-0.1296070019646257,-0.2001860047182291,0.0126703428688536,0.0070625945680072,-0.0089743848093354,-5.15938063337789e-07,-4.66687771546173e-06,-7.955321103412534e-06,12099,64.734898,69.337964,52.12932
0.0922734203063442,-0.0876686716866445,-0.2375773691365408,0.01348537524712,0.0077006168623082,-0.009345900127729,-1.4672025178121541e-08,-5.2014319786429645e-06,-7.321803379656417e-06,12100,64.371609,69.559026,49.269087
0.0978417074478758,-0.0488721013099978,-0.3005756932940762,0.0142516671643204,0.0083373885702415,-0.0095177111314249,4.90118232043037e-07,-5.639529387563733e-06,-6.541296642733749e-06,12101,64.087842,69.820327,46.309474
0.0672961064165736,0.0030898605838853,-0.3483740926202113,0.0149577010544798,0.0089554809657526,-0.0094802861636889,9.730276944945704e-07,-5.982421435002084e-06,-5.687180397521832e-06,12102,64.037635,70.100803,43.386083
0.0187990377353712,0.0676211512297693,-0.3534990997941958,0.015602277758558,0.0095528700293164,-0.009286509720539,1.443354874273461e-06,-6.282606053659024e-06,-4.808083821380533e-06,12103,64.204735,70.411175,40.543137
-0.0057678881068298,0.1156303357548965,-0.3323438100267813,0.016184209202033,0.0101223279639446,-0.0090049926103115,1.918346983640553e-06,-6.543232981671314e-06,-3.861216585945747e-06,12104,64.455719,70.774742,37.778636
-0.0113526485654559,0.1238364602983335,-0.3224682703735934,0.016706860109724,0.0106588209809094,-0.0087481690247854,2.395325562774442e-06,-6.723748427576225e-06,-2.7963385631719723e-06,12105,64.768255,71.195457,35.088273
-0.0290533880740903,0.1270773184178355,-0.3238357042251072,0.0171733616196125,0.0111551957639436,-0.0085659365980661,2.84454687823966e-06,-6.823667016720085e-06,-1.6909052656475509e-06,12106,65.214653,71.667763,32.490091
-0.0513677983109078,0.1541673130418385,-0.3107738931056545,0.0175863800284753,0.0116000818791326,-0.008436923504061,3.2443400882510595e-06,-6.894477685725909e-06,-6.730090707843145e-07,12107,65.894498,72.178746,30.023481
-0.0707881832457419,0.1638256437604226,-0.2835354490571034,0.0179554120595185,0.0119853646179829,-0.0083417389570245,3.587596601587019e-06,-6.946217969577886e-06,2.2125140726024745e-07,12108,66.613024,72.729792,27.618442
-0.1202485559403492,0.1573764112131678,-0.2587597047050172,0.0182969237482218,0.0123047753080984,-0.0082289288367195,3.8770919638382e-06,-6.952533029942263e-06,1.0300950035950392e-06,12109,67.154273,73.314512,25.155787
-0.2068719716153394,0.1703188000316661,-0.2399750219856462,0.0186185632287629,0.0125519839411062,-0.0080768259375163,4.12413251104385e-06,-6.923370972409168e-06,1.7681225485944917e-06,12110,67.540825,73.93292,22.584358
-0.2806071420204543,0.1236640903734681,-0.2204273880349186,0.018919616787259,0.0127218467000789,-0.0079005012521219,4.329654441603102e-06,-6.868925990953433e-06,2.4256999501005326e-06,12111,67.811014,74.630503,19.879198
-0.3089134068597826,-0.0263067966630238,-0.2010438446349539,0.0191990467898866,0.0128107585935249,-0.0076933731073082,4.516224112381125e-06,-6.793740671084172e-06,3.0602286689445757e-06,12112,68.464912,75.435142,17.442866
-0.3128138873382994,-0.1245446818898221,-0.2063468796183812,0.0194511149390414,0.0128170677255337,-0.0074429151184532,4.729369501138428e-06,-6.746744534799816e-06,3.730215733488056e-06,12113,69.730765,76.237627,15.399738
-0.3012922597042424,-0.0965236309184301,-0.2490592614393869,0.0196769008223651,0.01275112487945,-0.007146851117738,4.9548179582663255e-06,-6.788424608065293e-06,4.317151215015559e-06,12114,71.327132,76.965256,13.553641
-0.2838689382245257,-0.0934982329794235,-0.2852169539231562,0.0198854799011408,0.0126381418009876,-0.0068076615281853,5.144904470351071e-06,-6.959374327227315e-06,4.635753178041524e-06,12115,72.796845,77.564349,11.594745
-0.2908602353895976,-0.1628356981672956,-0.2815848516971372,0.0200853881432666,0.0125172944454472,-0.006436630010888,5.315807884895391e-06,-7.283662623886867e-06,4.69061704904253e-06,12116,74.038398,78.052155,9.600425
-0.239714834762559,-0.1905051554994598,-0.2853915096789856,0.0202883121219232,0.0124492318830534,-0.0060580104419965,5.536869983128635e-06,-7.77413314339618e-06,4.6487918973791785e-06,12117,75.19542,78.488754,7.803575
-0.0244119817249005,-0.1658667149600548,-0.3293350601816935,0.0205045997389963,0.0124536705922722,-0.0056891189043596,5.865499336598102e-06,-8.440778375950012e-06,4.657819341529759e-06,12118,76.293561,78.97019,6.265004
0.2293526352323436,-0.1450022950416748,-0.3621021407851606,0.0207427286473574,0.0125054909023171,-0.0053423236722585,6.305914004333339e-06,-9.223902561753786e-06,4.817839249293557e-06,12119,77.471408,79.558197,4.934933
0.3197964880560082,-0.1186441132322724,-0.3478897929345561,0.0210149066861155,0.0125681836825645,-0.0050397344555238,6.822039721832416e-06,-9.954326454549316e-06,5.262996431877212e-06,12120,78.976752,80.243025,3.835508
0.2681470135602938,-0.0714547398014744,-0.3129637459475216,0.0213364306094329,0.0125714929567505,-0.004810815408992,7.363433072117835e-06,-1.044614155143644e-05,6.1069894322358325e-06,12121,81.085542,80.967364,3.064367
0.2270099988329252,-0.0297864589255367,-0.2773230742103394,0.0216999472321563,0.0124838848570651,-0.0046708219932088,7.842012946592109e-06,-1.057028076606497e-05,7.283461558903581e-06,12122,84.100954,81.659473,2.833969
0.2199895850734181,-0.0020479028734318,-0.238760033536791,0.022072111519413,0.0123167324206999,-0.0046209698019851,8.157455988409158e-06,-1.028500035459753e-05,8.573181817774509e-06,12123,88.069164,82.293423,3.329988
0.1640277396776183,0.0536369870961981,-0.2032675817700816,0.0224012490274354,0.0120709198952882,-0.0046567066457291,8.279435549742003e-06,-9.661946838315271e-06,9.791787908144483e-06,12124,92.50479,82.837288,4.318209
