AccX_processed,AccY_processed,AccZ_processed,GyrX_kalman,GyrY_kalman,GyrZ_kalman,MagX_processed,MagY_processed,MagZ_processed,PacketCounter,Roll,Pitch,Yaw
0.6661120256514571,0.0506036394454699,0.1455962022974226,0.0003296945936812,0.0004291885751276,-2.753463267359696e-05,-1.0989418903359185e-08,1.7574391620600452e-06,-7.210766927850134e-08,11582,0.027336,1.689466,10.301121
1.970235903489733,0.1639619680038037,0.4328800582779143,0.0003321603673171,0.0003454699070636,-1.8870383211195294e-05,4.5712804075731374e-08,4.160818573953324e-07,-4.6166046706704337e-08,11583,0.016203,1.690639,10.283415
2.587385063194726,0.2209084604319701,0.5711328940235305,0.0003118357981924,0.0001867772826907,-6.81226215079002e-06,8.425908606332153e-08,-4.922308848914411e-07,-2.9840928487922165e-08,11584,0.011405,1.681236,10.300421
1.8807964855557444,0.1729804381538022,0.41971808530163,0.0002766091780882,7.272916460513172e-06,1.4193346541610994e-06,1.0464942705941129e-07,-9.674990648002749e-07,-2.313231462215479e-08,11585,0.010709,1.672701,10.313589
1.9089181691553376,0.1770950395492169,0.4367796724374792,0.0002309384250826,-0.0001617267522504,8.137591952863226e-07,1.0688382706400065e-07,-1.009722682331168e-06,-2.6040205109402232e-08,11586,0.009771,1.664782,10.32404
1.7872196701622496,0.1664396716981557,0.4281111713905341,0.0001766748916923,-0.0003053727116329,-1.2210420507841608e-05,2.3002805579746e-08,-2.417618478069876e-07,1.3118827025595848e-08,11587,0.007991,1.668275,10.338064
1.534381843571943,0.1406793703324166,0.3814177339867105,0.0001160674469603,-0.0004139554401353,-3.8856245356454346e-05,5.856498787876004e-10,6.006982953527688e-07,-2.6645461099202298e-08,11588,0.008389,1.657482,10.335773
1.4612967543592037,0.1271564209949759,0.3598708774493711,5.152741880378578e-05,-0.0004879691801197,-7.705716547860017e-05,1.2584882305557316e-08,1.40336558250975e-06,-9.778391172464817e-08,11589,0.006512,1.659454,10.315785
1.2616700257610218,0.1095560372712947,0.3110977520047467,-1.5592160335149057e-05,-0.000527662579384,-0.000125677355141,-1.0265278275580244e-08,2.0542023170126737e-06,-1.06128175806617e-07,11590,0.007646,1.648616,10.298169
1.072817871413577,0.0983752792349127,0.2711683966458673,-8.446527893670546e-05,-0.0005325123511673,-0.000183920697117,-5.5048617728128645e-08,2.313770804839439e-06,-5.733162918504644e-08,11591,0.002179,1.657714,10.27317
0.9154756678916706,0.088308134395655,0.2350943316112768,-0.0001544667434086,-0.0005121330266642,-0.0002480946610092,-7.287044332144389e-08,2.24525464819306e-06,-2.3326575296258298e-08,11592,0.001829,1.662268,10.255695
0.7246265695051334,0.0668485843371013,0.1882153298349135,-0.0002252903099582,-0.0004853826217665,-0.0003118345134996,-8.377307282400756e-08,2.389835439160678e-06,-1.523251258384333e-08,11593,0.004048,1.670589,10.272718
0.5644950886143089,0.0453882931215628,0.1474015245367598,-0.0002964102512132,-0.0004603986630479,-0.0003721310777797,-1.2034770313062282e-07,3.1236083496739525e-06,-1.1304094356187901e-08,11594,-0.002551,1.70726,10.269933
0.3806087000531377,0.0240476578475096,0.0895618518657297,-0.0003669929429148,-0.0004351565836098,-0.0004291461407526,-1.4362383787919665e-07,3.631313637047819e-06,-7.556863852352521e-09,11595,0.017983,1.753436,10.260728
0.1876152102258155,-0.0201355566061615,0.0147003580212106,-0.0004361486254492,-0.0004068001346819,-0.0004832579941745,-1.1505989509132085e-07,2.844088803723105e-06,9.768431111845364e-09,11596,0.041834,1.799225,10.244765
0.0035211102126279,-0.0929270508120124,-0.0544213307062675,-0.0005027222316247,-0.000365971981888,-0.0005367580213022,-7.177962804457303e-08,1.382031297696845e-06,4.49758211503818e-08,11597,0.066782,1.823666,10.166629
-0.1777624764701018,-0.1664449417917192,-0.1047189199977943,-0.0005653011186815,-0.0003118075723513,-0.0005892999723564,-4.897289801179587e-08,4.863205904069316e-07,6.5534168561189e-08,11598,0.12696,1.772432,10.045194
-0.3478020362215049,-0.2287766076752151,-0.1420634100519939,-0.0006221103697715,-0.000253082257787,-0.0006374907729558,-9.921315039410054e-09,3.1662166774151575e-08,3.3072428602987215e-08,11599,0.176231,1.746362,9.898924
-0.5208028196701537,-0.2867586355529848,-0.1770439092789284,-0.0006706810149737,-0.000196795781534,-0.0006782811959708,4.006213225138652e-08,-3.294426029531539e-07,-2.2547685312918935e-08,11600,0.217329,1.700629,9.691003
-0.6898890322200601,-0.3287555932966668,-0.2053252579759971,-0.0007076371763768,-0.0001525348106915,-0.0007075656695399,-5.697572366362325e-09,1.2049346069121133e-07,-1.1859895783521952e-09,11601,0.242651,1.684695,9.439489
-0.8352238468380542,-0.3505383980537019,-0.2284750601888697,-0.0007314816171681,-0.0001258313850167,-0.0007229752504367,-1.6435539705652e-07,1.4917243761412867e-06,1.2053606758184188e-07,11602,0.28436,1.627728,9.187767
-0.9621226836665352,-0.3724643652123218,-0.2521013806058262,-0.0007427452705053,-0.0001166283471138,-0.0007243757130063,-3.1751521819817613e-07,2.374845867195316e-06,2.7467670914988e-07,11603,0.330271,1.639371,8.93764
-1.0962215830394988,-0.3876631643115584,-0.2689433639234584,-0.0007426045570882,-0.000125506335993,-0.0007115617394983,-4.2508570604417234e-07,1.9747905425744297e-06,4.493332112720827e-07,11604,0.357593,1.709839,8.686232
-1.25835603869892,-0.381553555702487,-0.2792010401257342,-0.0007339002554451,-0.0001512274942789,-0.0006852685767409,-5.546239393686927e-07,1.2483200191366491e-06,6.673540694866085e-07,11605,0.372138,1.763667,8.416768
-1.435048000672774,-0.3699973865994064,-0.2966255359300744,-0.0007196074425697,-0.0001921630192494,-0.0006462690896516,-7.171710075175293e-07,1.069593973022323e-06,8.899450131239445e-07,11606,0.379149,1.814733,8.160485
-1.5825356400737869,-0.3402723112819973,-0.3149981090205281,-0.000703070962461,-0.0002465096480241,-0.0005953294842084,-8.230826009826139e-07,1.0135230870448804e-06,1.028462930326859e-06,11607,0.384268,1.81792,8.021418
-1.6953838817111828,-0.2815803836060692,-0.3223281404329889,-0.0006900696977938,-0.0003090024836471,-0.0005347346526931,-8.13285105804258e-07,6.88109570818435e-07,1.0284524270868396e-06,11608,0.343705,1.846633,7.938221
-1.8230411091009824,-0.2285737115807511,-0.3366108575956097,-0.0006890692887556,-0.0003706049321429,-0.000468369801319,-7.48332684270744e-07,5.024310767113498e-07,9.440279779405768e-07,11609,0.326102,1.890855,7.911299
-1.974846719661497,-0.1491525179046435,-0.3608189547927225,-0.0007042372056146,-0.0004269710480296,-0.0003982958908943,-6.683891606792568e-07,4.934668552934019e-07,8.314183147687989e-07,11610,0.341675,1.965576,7.970516
-2.095747458646976,0.0223299713151698,-0.3806320558043102,-0.0007353506926308,-0.0004782436804946,-0.0003248806033226,-5.112743779036811e-07,3.174378555984649e-08,6.509457484551924e-07,11611,0.366056,2.007432,8.042585
-2.172671085781835,0.1990621105011244,-0.4256470275397848,-0.0007812954787326,-0.000524572510116,-0.0002486305953634,-2.766017323789047e-07,-1.1309417850844067e-06,4.130871494784189e-07,11612,0.352853,2.085366,8.130814
-2.2415309331387068,0.2468587221282727,-0.505387604498345,-0.0008378130485292,-0.0005684382762934,-0.0001693069050966,-7.724637770825882e-08,-2.380063025953015e-06,2.2818031779609922e-07,11613,0.355579,2.10513,8.210638
-2.300588473798663,0.2068054969286871,-0.5598426721640465,-0.0009021138150674,-0.0006085316491599,-8.856702331797055e-05,2.627642956671184e-08,-2.9180727361972145e-06,1.3496526981462397e-07,11614,0.374841,2.05639,8.271898
-2.337560017227891,0.1784001750850107,-0.5636923562526222,-0.0009728606409557,-0.0006390322018136,-1.0372245918874757e-05,1.1094608673891521e-07,-2.8137665075419548e-06,3.8616764155425846e-08,11615,0.413976,1.971172,8.319457
-2.3674457989529736,0.162350809383554,-0.557455890570002,-0.001045637776992,-0.0006540484225475,6.0690546573702805e-05,2.561985822537259e-07,-2.842217538172331e-06,-1.2881882757770238e-07,11616,0.436302,1.884339,8.303647
-2.3748915350130706,0.1424960268231538,-0.5607655968104085,-0.0011135224952281,-0.0006455271061565,0.0001183205129761,4.068756861114228e-07,-3.2888674670249657e-06,-2.889147326240496e-07,11617,0.463739,1.792089,8.236785
-2.3347168135604326,0.1257103133477685,-0.5625722212462221,-0.001173411343212,-0.0006089887541189,0.0001589969544893,5.028595491909795e-07,-3.5732645087592072e-06,-4.0030282535067173e-07,11618,0.49908,1.642692,8.136233
-2.2772244063646463,0.110498328867504,-0.569091310654656,-0.0012257876748542,-0.0005442792644929,0.000182366783004,6.113656154583893e-07,-3.19625127823046e-06,-5.788032200790001e-07,11619,0.482553,1.516693,8.000741
-2.241728021274027,0.0982694955866358,-0.5886657113954905,-0.0012720763620444,-0.0004513803529206,0.0001883423257717,7.645458952812918e-07,-2.521684240186268e-06,-8.384376822053306e-07,11620,0.415908,1.421123,7.841931
-2.224554977422342,0.0993001072913979,-0.6050540035980245,-0.0013165703954056,-0.0003324294098224,0.0001786288234893,8.721056970204501e-07,-2.0297550487049428e-06,-1.0201390176519807e-06,11621,0.361715,1.33091,7.695474
-2.190973422226316,0.128533673845195,-0.5961880597747619,-0.0013615837627077,-0.0001892757993791,0.000154408055877,8.953700961585656e-07,-1.3347126912696952e-06,-1.0888677728099215e-06,11622,0.311989,1.253438,7.517457
-2.1134255318466595,0.1712661917049832,-0.5745590505614835,-0.0014074046632772,-2.3428642104125763e-05,0.0001163059044656,9.06026354393981e-07,6.523358727240518e-08,-1.1764698209233551e-06,11623,0.278815,1.190567,7.371871
-2.0114108235872727,0.1902322123947461,-0.5723696112857769,-0.0014564610310724,0.0001606070781451,6.710454858813744e-05,9.561548219670933e-07,1.4096064515657884e-06,-1.3168439871753371e-06,11624,0.24487,1.171879,7.225103
-1.9265355905949904,0.1931684297981034,-0.5702538942578198,-0.0015124312584816,0.0003553404554615,1.1580018388611862e-05,1.0209234809111725e-06,1.4482246051852137e-06,-1.4007008095438128e-06,11625,0.189266,1.248609,7.022709
-1.863062585267517,0.207475288071711,-0.5531123972954352,-0.0015769683820041,0.0005568980749033,-4.757038803032386e-05,1.079071624225026e-06,4.0567365163048587e-07,-1.4088671817553427e-06,11626,0.149664,1.298406,6.842423
-1.7993112874250778,0.2177406934140477,-0.576322925734293,-0.0016499932052767,0.0007647727910421,-0.0001094411474151,1.1838814943977855e-06,-6.440230245299666e-07,-1.479118738054448e-06,11627,0.130501,1.338822,6.68444
-1.734956268561895,0.2048776573569068,-0.6460856289241509,-0.001730627534038,0.0009784585130812,-0.0001728597471773,1.3665313848849026e-06,-1.5686466904414552e-06,-1.6623412117229806e-06,11628,0.137465,1.369988,6.519836
-1.6952361542742165,0.1807909384779819,-0.6880667187634664,-0.0018162011527488,0.0011992213516926,-0.0002373546868849,1.540298804521534e-06,-2.556419080456426e-06,-1.829293497053482e-06,11629,0.15799,1.389457,6.363514
-1.7009645706207552,0.1510233512049033,-0.6759713696674554,-0.0019051478816036,0.0014250026356369,-0.00029965719733,1.6368126563076831e-06,-3.1447715583184737e-06,-1.9180449119979573e-06,11630,0.16307,1.493199,6.218077
-1.7226560963130255,0.1123704877351641,-0.6486162496871786,-0.0019969283664173,0.001649790143595,-0.0003530847497233,1.6957703471236863e-06,-3.060678684722855e-06,-2.002616665156298e-06,11631,0.184559,1.63362,6.033139
-1.6908334814225998,0.0699943960522299,-0.6199107182108571,-0.0020896216831548,0.0018670955226317,-0.0003894436435382,1.7515509945662388e-06,-3.0433414010270863e-06,-2.0795761503055058e-06,11632,0.201972,1.886523,5.885546
-1.6016361179447989,0.0289736206941411,-0.5819035991858306,-0.0021803825351674,0.0020681014318853,-0.0003973901475439,1.774426106031914e-06,-4.152244673479203e-06,-2.0349094277618686e-06,11633,0.187222,2.205966,5.674953
-1.5247025722861065,-0.0026416499143304,-0.5619807918425872,-0.0022677921614627,0.0022468083233923,-0.0003716699226341,1.7254076600765424e-06,-6.422102895420731e-06,-1.8193436729895597e-06,11634,0.135196,2.590194,5.419291
-1.4697118348575668,-0.0226823550064496,-0.5664935072131866,-0.0023517007138287,0.0024004938838749,-0.0003139014004324,1.6421949212517024e-06,-8.885860132303946e-06,-1.55660451430125e-06,11635,0.068456,2.991057,5.147368
-1.3997006579897249,-0.0391940617964018,-0.5609187007852506,-0.0024324050106449,0.0025257439434534,-0.0002272614028572,1.600894724059886e-06,-1.0716571782349306e-05,-1.4003104246116527e-06,11636,-0.023447,3.397945,4.84542
-1.3394337897401458,-0.0515502556240558,-0.5666585264031976,-0.0025113558734197,0.0026199717768839,-0.000119860203031,1.568303452007576e-06,-1.1550569094297914e-05,-1.3192439994328682e-06,11637,-0.139118,3.763599,4.544228
-1.3084491312638034,-0.057853106063222,-0.615895003477091,-0.0025891332086616,0.0026786351086746,-1.5591901988422886e-07,1.4654899553656792e-06,-1.137669175875554e-05,-1.206299840468052e-06,11638,-0.303615,4.057616,4.258262
-1.2609614185642282,-0.0653463905826707,-0.6504048495261072,-0.0026654397747694,0.0026945941749834,0.0001224885985134,1.297563068964904e-06,-1.0466111424352271e-05,-1.053643373265372e-06,11639,-0.545428,4.380228,3.933243
-1.1882154955342803,-0.0772050078723661,-0.6208475658666391,-0.0027407420551186,0.0026603780070018,0.0002313855616857,1.0699264964293471e-06,-8.890685722840961e-06,-8.580752307412709e-07,11640,-0.803557,4.685183,3.591042
-1.1192764201033965,-0.0876472648267027,-0.5555079410479575,-0.0028158742107237,0.0025670139655905,0.0003018281681765,7.559552555410633e-07,-6.657284298357675e-06,-5.79449536903269e-07,11641,-1.063242,4.992182,3.188998
-1.0163230376426329,-0.0881001026826656,-0.4996775685145858,-0.0028908249378957,0.002414772679981,0.0003220982086989,3.9680435499506326e-07,-4.150616196697306e-06,-2.5795099689093664e-07,11642,-1.343802,5.273755,2.749287
-0.8688783953228733,-0.0869455397764898,-0.4552968439102132,-0.0029648164387998,0.0022149800287423,0.00029374056552,9.262758379329201e-08,-1.6197175473752374e-06,-2.0235938117683472e-08,11643,-1.616099,5.482258,2.260635
-0.7611029786170738,-0.0951612540511674,-0.3711687304517649,-0.0030365504757508,0.0019856088059191,0.00022113924184,-8.197465663274408e-08,8.265481747298592e-07,4.3672533935683426e-08,11644,-1.84689,5.529403,1.752913
-0.7085455908038377,-0.0709620395401021,-0.3324792359180538,-0.0031037732104167,0.0017567725666461,0.0001183278131208,-1.126333285063975e-07,2.519883776204643e-06,-3.8828116374881753e-08,11645,-2.127167,5.581953,1.20315
-0.6493663766379447,-0.0032107774331482,-0.3481912486459072,-0.0031642652338941,0.001557940156645,-4.77827439936628e-06,-3.6298883402436105e-08,3.0360569626602643e-06,-1.8888015351554028e-07,11646,-2.398224,5.446045,0.705018
-0.5630541057136564,0.0049695180171608,0.0587111707486924,-0.0032156651827549,0.0014198914529316,-0.0001422207653892,9.069101247425637e-08,3.2100231048835982e-06,-3.761196758169449e-07,11647,-2.603093,5.161106,0.191341
-0.5046545100450255,-0.0658792425996049,1.0866697608203508,-0.0032543778249814,0.0013889489802997,-0.0002782617571746,1.9897627920588893e-07,4.05546318788928e-06,-5.645807736809517e-07,11648,-2.381567,4.668981,-0.254271
-0.5782256782515842,-0.110118848722309,2.0507456352537785,-0.0032754795971421,0.0015279282548391,-0.0003888969466571,2.1429799581453707e-07,5.405875133108985e-06,-6.496843491120952e-07,11649,-2.223205,5.014868,-0.811372
-0.7494920255390684,-0.1778827668984474,2.4245119025473927,-0.0032761671631962,0.0018438492014698,-0.0004627779875702,1.2547254557518902e-07,6.219159066810388e-06,-5.642839005340253e-07,11650,-2.160537,5.185496,-0.920144
-0.8049182760071099,-0.3813242078316848,2.451390612435309,-0.0032557957463016,0.0022815365178777,-0.0005005880041065,-1.7434872968124317e-08,5.947744866480532e-06,-3.501265324051143e-07,11651,-2.083779,5.009325,-1.118727
-0.6942889489059153,-0.5942763530089588,2.3792699772870893,-0.0032141632265212,0.0027520088474099,-0.000506038624928,-1.897876143785136e-07,5.0925378540248285e-06,-7.303980616345087e-08,11652,-2.365372,5.614872,-1.913469
-0.603567236519754,-0.6543378416569328,2.204886685039776,-0.0031526202379875,0.0031007936283819,-0.0004922880313692,-3.963498936891572e-07,3.964552605482927e-06,2.559546927157211e-07,11653,-2.603291,6.319427,-2.609769
-0.573897946803404,-0.631874911269879,2.018283243667736,-0.0030717348918199,0.0032663830023867,-0.0004662038182623,-6.136386446557917e-07,2.2965244133057034e-06,6.264217428132473e-07,11654,-2.686397,6.733626,-2.924726
-0.5027094718409244,-0.6517800435702823,1.862219281030468,-0.0029712910092283,0.0032881790911224,-0.0004282200520208,-7.853073263524036e-07,6.68490917550823e-07,9.353369280216832e-07,11655,-2.803638,7.114552,-2.98434
-0.4391907487071364,-0.7001989679855916,1.7036202438246526,-0.0028525375350435,0.0032066048334389,-0.000386067273138,-9.06006913045454e-07,4.233805444806892e-07,1.0982821761690348e-06,11656,-3.066494,7.48149,-3.089613
-0.4439199531408345,-0.7043354576468768,1.5735098045062126,-0.00271787226607,0.0031122709934128,-0.0003519719136377,-1.0534260982319004e-06,1.7527837238859703e-06,1.2040346975889363e-06,11657,-3.362314,7.773455,-3.304094
-0.4162531142808056,-0.6420662362409775,1.4561948322284408,-0.0025685024829042,0.0030391902079553,-0.0003314088336397,-1.2428386933452073e-06,3.256417586460476e-06,1.3566450710421748e-06,11658,-3.572212,8.01763,-3.585784
-0.268874659387331,-0.5576966202977255,1.3307392606007955,-0.0024046834552904,0.0029534898910719,-0.0003241312241499,-1.385147836346988e-06,3.8492429448910925e-06,1.5095560064538578e-06,11659,-3.734343,8.273395,-3.934347
-0.059520174388292,-0.492440698592484,1.2164268165804193,-0.0022267543885964,0.0028436765648169,-0.0003276666251931,-1.454575405224354e-06,3.86172193198425e-06,1.6115672770697686e-06,11660,-3.858154,8.585136,-4.257015
0.0964350549302172,-0.4289694892114581,1.1075064484208783,-0.0020345991687088,0.0026903023275281,-0.0003340420202775,-1.5184034507602129e-06,3.7901225720356496e-06,1.716565632973149e-06,11661,-3.939293,8.871108,-4.517326
0.1787864572762534,-0.358817783035214,0.9818604328696918,-0.0018298513944087,0.0024883976203544,-0.0003398317695691,-1.6048635328482168e-06,3.59683452825552e-06,1.8570944343885784e-06,11662,-3.994139,9.047988,-4.691111
0.2635715062502849,-0.3092144895567515,0.8084034102463425,-0.0016162480770507,0.0022584544413408,-0.0003462151641824,-1.6661115211173748e-06,3.5201996061636208e-06,1.9524411134066966e-06,11663,-4.073351,9.191637,-4.821119
0.3752814232919154,-0.2849321223634701,0.6074005073131603,-0.0013984776531665,0.0020142116616802,-0.0003511577867753,-1.6689141853883656e-06,4.156254120889003e-06,1.92233823430974e-06,11664,-4.14952,9.329853,-4.936197
0.462343987780092,-0.2559592008897192,0.4748750677545626,-0.0011831962681319,0.0017725507687256,-0.0003515247168198,-1.647777583424857e-06,5.391811789733574e-06,1.8167953330774131e-06,11665,-4.208274,9.509518,-5.030858
0.5082796378016555,-0.1987785052044401,0.4086878894048159,-0.0009740113978225,0.0015435504532252,-0.0003460514844652,-1.6384087984522057e-06,6.147011556002941e-06,1.7485729767101949e-06,11666,-4.243931,9.657001,-5.116043
0.542916547245866,-0.1290184763675718,0.2654085674938117,-0.0007711504041298,0.0013260663165321,-0.0003346672860486,-1.6504085103621418e-06,5.7239070154302064e-06,1.7807229102350843e-06,11667,-4.30916,9.808694,-5.220541
0.5940257843234706,-0.0677764882639448,0.0360547948443496,-0.0005745845570765,0.0011201045363262,-0.000318554499577,-1.7188942602024274e-06,4.7497146291582e-06,1.9281224688661746e-06,11668,-4.384649,9.935573,-5.336992
0.6523431374398774,-0.0205018362668351,-0.1153216469359537,-0.0003823806473394,0.0009221380971142,-0.0003009885280714,-1.9036793436228744e-06,4.56768864769481e-06,2.1843954212081567e-06,11669,-4.456183,10.044876,-5.443164
0.6835785852935038,0.0112175483368324,-0.1899727767102443,-0.0001934807568637,0.000727966403302,-0.0002837019373565,-2.223177684339026e-06,5.825136883298908e-06,2.526467705756673e-06,11670,-4.555348,10.178276,-5.513158
0.6980279272376959,0.0462078142801998,-0.3897241607117963,-7.802800587772946e-06,0.0005332103652768,-0.0002670546894072,-2.5577256786834458e-06,7.454710307642606e-06,2.861358808392998e-06,11671,-4.671945,10.256078,-5.560132
0.6949911101193076,0.0969444700752437,-0.7369993070843311,0.0001767273389257,0.0003267712480471,-0.0002526518818949,-2.6939868052190574e-06,7.816735918514483e-06,3.0161460238532463e-06,11672,-4.800611,10.273126,-5.609766
0.6980379741928207,0.1475467405984376,-1.026136433928465,0.0003638112279554,9.03008479651796e-05,-0.0002426888027554,-2.542234768405464e-06,6.7195881561274325e-06,2.8902211784187183e-06,11673,-4.944003,10.241874,-5.694848
0.858682887559016,0.205084186778272,-1.1836593553161898,0.0005544187701002,-0.0001832827016525,-0.0002382668933501,-2.193314425914083e-06,5.050092517284428e-06,2.547117762251391e-06,11674,-4.880537,10.229985,-5.58647
1.1716003709011966,0.2778264911615284,-1.2973857885473996,0.0007468935674854,-0.0004897488749122,-0.0002395675225611,-1.8001063909146652e-06,3.4806919005984104e-06,2.141318450388628e-06,11675,-4.524919,10.340417,-5.312935
1.3560671480243125,0.3242332367028535,-1.3557458048985944,0.0009387225814555,-0.000822668180505,-0.0002461920396544,-1.4934511920021478e-06,2.7936790416867825e-06,1.7925364897486004e-06,11676,-4.672301,10.694949,-4.820648
1.313949989444219,0.3279069175675759,-1.267322541727699,0.0011251348212151,-0.001167580823034,-0.0002566194254038,-1.323909439380019e-06,3.793222646247108e-06,1.5138870352475222e-06,11677,-4.420702,9.330114,-4.601055
1.2440368302025742,0.322573922649974,-1.0865171165811571,0.0013022134353093,-0.0015139939024395,-0.0002698728225097,-1.2618669197381086e-06,5.982563734595476e-06,1.2925859192696578e-06,11678,-4.699317,9.681038,-4.951863
1.2201717311586195,0.3069762019719001,-0.9701395339856392,0.0014667612724934,-0.0018553992733602,-0.000285415761523,-1.2494200563376082e-06,7.82974782796726e-06,1.1480453542614687e-06,11679,-4.645675,9.667483,-4.99261
1.1735255996344025,0.2653632427511499,-0.941562407493439,0.0016132656914801,-0.0021776218949667,-0.0003017326694063,-1.2227067190803342e-06,8.45314556217708e-06,1.0601348868976382e-06,11680,-4.357408,9.190418,-4.762281
1.1341172069122043,0.2211924294490887,-0.9245296475632688,0.0017341692173455,-0.0024604139353487,-0.0003165206916913,-1.1122167119574565e-06,7.874942635818383e-06,9.454601926051814e-07,11681,-4.284322,9.108292,-4.605049
1.1087673798892743,0.1911359751757201,-0.8913266186506339,0.0018251690012347,-0.0026910180994407,-0.0003278406384939,-8.615706230296958e-07,6.0853339911986285e-06,7.317106793355653e-07,11682,-4.07624,8.690934,-4.492906
1.066270415034182,0.1765103118643892,-0.8541616057918775,0.0018851280785687,-0.0028631747911084,-0.0003338773573415,-4.823594416293095e-07,3.073308202238813e-06,4.310039166586217e-07,11683,-3.749903,8.378115,-4.409315
1.0689813222626947,0.1852408186383404,-0.822392303337405,0.001913735372701,-0.0029712987618961,-0.0003323112227604,-2.942729175906555e-08,-5.614228756922179e-07,7.648008738331293e-08,11684,-3.245026,7.945124,-4.33215
1.1268134449895162,0.1984372744215942,-0.7916957326111875,0.0019131779438738,-0.003014061622872,-0.0003204176510789,4.9338320105459e-07,-4.05344310046988e-06,-3.7687030623582425e-07,11685,-2.774781,7.541679,-4.233227
1.1451457700050045,0.1987436041491278,-0.7556531040478032,0.0018842741642102,-0.0029917449782682,-0.0002994668148192,1.0692565042471795e-06,-6.792711765693078e-06,-9.517933859015896e-07,11686,-2.336775,6.988578,-3.996167
1.0923167824720872,0.2030987792310819,-0.7230648818443718,0.0018264972153328,-0.0029069255041076,-0.0002753930361322,1.567152878797667e-06,-7.881876060926398e-06,-1.534920746565469e-06,11687,-1.97432,6.439583,-3.651124
1.0247142608975943,0.18530432748718,-0.7189573329029624,0.0017415252945846,-0.002769952163992,-0.0002575110680951,1.8714481303667224e-06,-6.975890838959297e-06,-1.990589775164512e-06,11688,-1.814913,6.090932,-3.38561
0.9804107008142776,0.1012770250822963,-0.7744544153553348,0.0016326784136036,-0.0026003777349073,-0.0002608905795791,2.0167842276303314e-06,-5.182963821810477e-06,-2.291459837690603e-06,11689,-1.697126,5.774813,-3.217423
0.9380149793957144,0.0095495218997044,-0.8808141457910378,0.0015019333262182,-0.0024080185191513,-0.0002915119374068,2.071954110152972e-06,-3.7167627491670823e-06,-2.4539115148029224e-06,11690,-1.608798,5.547058,-3.092441
0.8492717440331621,-0.0033323718862123,-0.962135324484628,0.0013503716218169,-0.0021935069042466,-0.0003455021537984,2.027355750517116e-06,-2.6260510392829777e-06,-2.4610972707541834e-06,11691,-1.54998,5.408845,-2.968872
0.7141365076419537,0.0370764371800072,-0.9914753519301464,0.0011794997768731,-0.0019594290218194,-0.0004178731782282,1.895867263765908e-06,-1.738049196113946e-06,-2.337456349915145e-06,11692,-1.545446,5.29979,-2.903734
0.6121820650052496,0.0577276589933215,-1.0429862976960502,0.0009907025190607,-0.0017056306734505,-0.0004976615800917,1.7696789981284231e-06,-1.4834506340354635e-06,-2.1822650205229776e-06,11693,-1.531981,5.146767,-2.892828
0.5760033985716116,0.0489728885902848,-1.1331503335603412,0.000788461755161,-0.0014372556995198,-0.0005764207778235,1.6977066594211424e-06,-2.0336340402626244e-06,-2.056831691493904e-06,11694,-1.478988,5.030471,-2.904713
0.5464551376391734,0.036635583133645,-1.200558528163879,0.0005810758942259,-0.0011663539157288,-0.000648375052917,1.6530597647505155e-06,-3.159169778414418e-06,-1.9377408801799777e-06,11695,-1.38596,5.004333,-2.921106
0.5043060480677171,0.0276968547833004,-1.2216492114159312,0.0003794718258583,-0.0009051496935895,-0.0007014142724763,1.6359247686970325e-06,-5.108809665368821e-06,-1.8022827387456208e-06,11696,-1.268296,5.016353,-2.964032
0.4702690939157958,0.0139544587258643,-1.212422204618297,0.0001990772611937,-0.0006691043408845,-0.0007180761973922,1.6479078643802598e-06,-8.002702907132653e-06,-1.6420607771188887e-06,11697,-1.112383,5.034107,-3.023741
0.4470225176625101,-0.0077984623318552,-1.208113650974592,4.824125544192789e-05,-0.0004677822876649,-0.0006854671991373,1.6124364547387943e-06,-1.0886247724023471e-05,-1.4155545657157866e-06,11698,-0.957831,5.115425,-3.124375
0.4385369632086429,-0.0230445885233883,-1.1922174406579784,-7.239093131104266e-05,-0.0003035798814761,-0.000594104699384,1.482523078100276e-06,-1.2852650554717128e-05,-1.1174520590069966e-06,11699,-0.773947,5.242727,-3.209202
0.4453432543116249,-0.0131159975077275,-1.1169077662708022,-0.0001630236872425,-0.0001781446866903,-0.0004330197991925,1.3370612289041785e-06,-1.4325333612127682e-05,-8.256575917307777e-07,11700,-0.56751,5.308169,-3.282095
0.5210048289846982,0.0042984023681922,-1.0017305213985055,-0.0002285133496699,-8.899222057532038e-05,-0.0001917052890909,1.269593828945062e-06,-1.5982558616598468e-05,-6.219496772900775e-07,11701,-0.357808,5.411548,-3.354383
0.7293783939013692,0.0078834772372168,-0.8681654237990593,-0.0002716739442458,-3.3496238383944534e-05,0.0001212048096331,1.27191156437023e-06,-1.7264954728658493e-05,-5.331166688174659e-07,11702,-0.138442,5.492962,-3.379912
0.951022391523887,0.0192887133933385,-0.8441972679409269,-0.000293137545948,-8.67123383303869e-06,0.0004744069637788,1.2452740646840394e-06,-1.6944684959310936e-05,-5.100039910467084e-07,11703,-0.078874,5.542115,-3.426491
1.0047055720540985,0.0169091903852838,-0.880054946726462,-0.0002984047712237,-5.298844029266019e-06,0.0008170779592587,1.1008994613988542e-06,-1.462174431738316e-05,-4.654677282485482e-07,11704,-0.193556,5.618472,-3.360793
0.9188507140649964,0.0079788784201762,-0.3436058167656136,-0.0002970322324929,-7.484655219005334e-06,0.0010672400904454,8.417314848995811e-07,-1.1070713814402935e-05,-3.575484494947446e-07,11705,-0.365278,5.274934,-3.025095
0.825503123989835,0.1652264659118544,0.8673322848338798,-0.0002932831686141,-8.307960309787311e-06,0.0011887729541522,5.25227697182862e-07,-7.165830358059772e-06,-2.0437267004378866e-07,11706,-0.959428,5.149269,-3.291628
0.756209132141393,0.5286620303229354,1.7351223551416783,-0.0002866581273383,-9.61409304769589e-06,0.0011944755413372,2.02636864577347e-07,-3.2335602013753853e-06,-4.897613606405227e-08,11707,-1.528323,4.777721,-4.036675
0.6882179038017531,0.839493843776873,1.7809111910925512,-0.0002760104015262,-1.391273493433543e-05,0.0011004321077206,-7.561368042474665e-08,2.1217021714154947e-07,7.715088888041478e-08,11708,-1.667337,4.330974,-4.351162
0.6142919889488256,0.9563090756908458,1.6362228751376118,-0.000256963959047,-2.8913913541915837e-05,0.0009502180758183,-2.292977248979784e-07,2.337172957729189e-06,1.2685723786774496e-07,11709,-1.832914,4.71351,-4.062834
0.5025390144427131,0.98695608357991,1.6197010038810729,-0.0002294938921339,-5.6257369143196696e-05,0.0007683331688896,-2.172097228087685e-07,3.226496163271392e-06,4.790965257136081e-08,11710,-1.865371,4.507306,-3.707722
0.3229977781764063,0.9409612372648024,1.513783678527416,-0.0001985161681365,-9.057700447948328e-05,0.0005574343244988,-1.4457768035520289e-07,4.000264055173749e-06,-9.298523257868714e-08,11711,-2.302272,4.661454,-3.7583
0.1687016785762051,0.7795661625735011,1.3146308583469315,-0.0001684227311176,-0.0001284051895814,0.0003428280681409,-1.3174916625848657e-07,4.99539612095383e-06,-1.6957557664500564e-07,11712,-2.492288,4.203261,-3.807533
0.1162055797626533,0.6533290329607035,1.0934046466469454,-0.0001453828111502,-0.0001649872689657,0.0001633212229008,-1.5049457891214898e-07,5.261822144040739e-06,-1.667780779383469e-07,11713,-2.616392,4.066419,-3.805272
-0.040509721182674,0.6609078339295257,0.9283492882573712,-0.0001327086199666,-0.000197688714719,3.864842992771199e-05,-1.4600448309361632e-07,4.584637028546074e-06,-1.395136179316601e-07,11714,-2.629311,4.026908,-3.924148
-0.4565924817418708,0.6952053512551756,0.889787318693263,-0.000130063124902,-0.0002271121172784,-2.679201088077749e-05,-1.729514237518462e-07,4.338596128167789e-06,-9.342255041683141e-08,11715,-2.436512,3.935269,-4.011147
-0.8322798682682229,0.6687222439908722,0.7695305384846495,-0.000137278205976,-0.0002532262273498,-3.454213113582583e-05,-2.83660568750516e-07,5.25949608685977e-06,-1.2956503249285656e-09,11716,-2.267632,4.030132,-3.970827
-0.8911879824891222,0.608521136293189,0.4768884568370117,-0.0001527050344386,-0.0002767049042567,-1.082455727282694e-06,-3.6919381784130427e-07,5.798224539478788e-06,8.676988792279242e-08,11717,-2.152315,4.032818,-3.812246
-0.8144658739144459,0.5655388426716609,0.224400176357349,-0.0001747376129126,-0.000298810454455,6.55036710229233e-05,-2.992283135127541e-07,4.364773953883748e-06,9.434898223590369e-08,11718,-2.136449,4.079288,-3.60171
-0.8022058469405797,0.527782620178088,0.1360005213446936,-0.0002019243975013,-0.0003212262151162,0.0001648447483349,-1.4398323492963258e-07,1.8412980841605812e-06,6.013139804558719e-08,11719,-2.129539,4.120893,-3.425092
-0.7890240770942109,0.4431630606337974,0.1477783213807341,-0.0002305032254476,-0.0003475470599227,0.0002840699953188,-3.4148243620907725e-08,-1.1729004909716657e-07,5.035287492018972e-08,11720,-2.07092,4.081871,-3.272936
-0.7313808657746096,0.3331159617085949,0.0942562320735323,-0.0002543404541395,-0.000383617569838,0.0004011228797639,2.0954864686422012e-08,-1.3534741925805642e-06,5.772923267732552e-08,11721,-2.046806,4.113618,-3.184344
-0.6830982975904248,0.2841550027546374,-0.1084047664294628,-0.000270374277018,-0.0004316967508135,0.0005047347471586,3.606989430182357e-08,-2.0587115115568507e-06,7.262365106312679e-08,11722,-2.07018,4.050975,-3.199046
-0.6480164747559817,0.3102304904171484,-0.3096708835928851,-0.0002784730625687,-0.0004903686561763,0.0005925468880517,-4.4750273574694416e-08,-1.5650396200740142e-06,1.3612218843091414e-07,11723,-2.140046,3.920959,-3.266465
-0.5648118061528538,0.3206412169935695,-0.3736802000526594,-0.0002786759841883,-0.0005575078490555,0.000662943873943,-2.7294267209389504e-07,4.876105057788324e-07,2.985145932619849e-07,11724,-2.271184,3.870829,-3.383542
-0.3976958403951193,0.2505255770889452,-0.4103692279607388,-0.0002727229284913,-0.0006284036299247,0.0007200854666688,-5.932674133471836e-07,3.291661864189244e-06,5.361676238611329e-07,11725,-2.410084,3.731957,-3.516619
-0.2320591783646592,0.1490378681471948,-0.4859320732805063,-0.0002600768270853,-0.0006993414834648,0.0007551285382239,-8.972450858277692e-07,5.797593895428762e-06,7.754605371591528e-07,11726,-2.608704,3.654834,-3.607384
-0.1228984049543061,0.0785461157275664,-0.4921724643862002,-0.0002375495467815,-0.0007675579226102,0.0007440680784097,-1.1246650512169708e-06,7.823935756507147e-06,9.516916600029589e-07,11727,-2.847575,3.581267,-3.667754
0.0448015650473257,0.0131993410933659,-0.4371253926439421,-0.000202308575363,-0.0008275510022061,0.0006589754281687,-1.2408484886177733e-06,9.935590502988807e-06,9.75644646514224e-07,11728,-3.033334,3.426488,-3.66188
0.2834119779198134,-0.0634473644053732,-0.3840883280502251,-0.0001506580110631,-0.0008714260787029,0.0004607327245182,-1.2297522077869512e-06,1.2269662276700282e-05,8.0849516940217e-07,11729,-3.228508,3.331586,-3.595257
0.414605129521265,-0.0976124521855381,-0.3047917071683524,-8.037735144894822e-05,-0.0008950378679651,0.0001456086870949,-1.1317529731178524e-06,1.3934673142276609e-05,5.617768753313575e-07,11730,-3.410764,3.036785,-3.565284
0.4062855975944793,-0.0765654866487562,-0.1360906212054938,8.836626842006166e-06,-0.0008978572018921,-0.0002486984303925,-1.0106352129983522e-06,1.412191383764247e-05,3.761746579435665e-07,11731,-3.458131,2.448108,-3.726907
0.3922625034627902,-0.0488374551252802,0.2655214840681078,0.0001173259485193,-0.0008802815786556,-0.0006663117418563,-9.194994622690346e-07,1.3224186335560992e-05,3.002332650895083e-07,11732,-3.290206,2.162439,-3.816873
0.3914526521957266,-0.092519163828056,0.8882880425786508,0.0002446079091188,-0.0008455510943059,-0.001012742115203,-9.072475042732704e-07,1.1963342630849203e-05,3.5935433450569005e-07,11733,-2.71389,2.085055,-4.211336
0.3707749823226207,-0.3035669767409975,1.342941621174593,0.0003900841668988,-0.0007952606537028,-0.0012460910807635,-9.76260600929748e-07,1.0015866379934411e-05,5.816208402656233e-07,11734,-2.291758,2.913157,-3.986988
0.3900468384221679,-0.6255339455313458,1.3708216493894394,0.0005530569460689,-0.0007293669946554,-0.0013820446407311,-1.033051307556167e-06,6.867707272525366e-06,8.71247606347373e-07,11735,-1.857337,2.808364,-3.420632
0.433478548803897,-0.8763451404740121,1.2284776760008689,0.0007314280456525,-0.0006502548952615,-0.0014340655133408,-9.799878730127306e-07,3.59386373493024e-06,1.0256235993408411e-06,11736,-1.725624,2.475422,-3.471712
0.3750022190230421,-1.026358810263999,1.156432777992928,0.0009215769780326,-0.0005620431433205,-0.0014412332068049,-8.525978585624455e-07,1.776924500175129e-06,9.91214409651606e-07,11737,-1.730977,2.673929,-3.997504
0.1988726850008432,-1.076034645979897,1.0351142439055172,0.0011212176546041,-0.0004668334539265,-0.001424157484672,-7.62530672863608e-07,1.334380863813709e-06,9.187003555463458e-07,11738,-1.359271,2.80332,-4.079073
0.0453819951135251,-0.936911583016842,0.7990909419358845,0.0013292091041906,-0.0003650960304751,-0.001380401418192,-7.349720827500041e-07,1.4882560587607498e-06,8.853989196104531e-07,11739,-0.976321,2.851992,-3.783096
-0.0001002077080731,-0.7510698977896574,0.5852670090599356,0.0015438785628509,-0.0002571421935096,-0.0013299756599184,-7.047471519983573e-07,2.0043874526039667e-06,8.18621221487995e-07,11740,-0.699728,2.512104,-3.452699
-0.033461564406736,-0.7585056292052731,0.4707070686624203,0.0017636234233874,-0.0001421906969698,-0.0013060065232952,-6.226582272189908e-07,2.2011073552366014e-06,6.992614589108354e-07,11741,-0.741753,2.312172,-3.253157
-0.1397589993682074,-0.8623183088569992,0.3940192216535934,0.0019844621530166,-2.1899537773772103e-05,-0.0013187938870004,-4.911569593201537e-07,1.2473549502197622e-06,5.872574499571239e-07,11742,-0.814231,2.243664,-2.982202
-0.2312662549964696,-0.8549445176220909,0.2962745319841332,0.0021994023352208,9.9238648103754e-05,-0.0013588719830365,-3.232746108866883e-07,-7.481273428264318e-07,4.978416315646339e-07,11743,-0.718691,2.204322,-2.589035
-0.2157248735332398,-0.7528497574452918,0.1943917202012619,0.0023994761763972,0.0002160017013218,-0.001406670717735,-1.1998888805530418e-07,-3.2339117572128423e-06,3.982909108129916e-07,11744,-0.577862,2.337577,-2.192857
-0.1472104831418747,-0.6593373796816312,0.0755228078581976,0.0025722817712134,0.0003210786480587,-0.0014212672698681,9.257168303637933e-08,-5.6685070789522044e-06,2.8342349329839504e-07,11745,-0.44781,2.403656,-1.876942
-0.0997808003791262,-0.609744837976584,-0.0750360866719787,0.0027104100500455,0.0004099412248378,-0.0013868390008464,2.702307505087988e-07,-7.604143737641472e-06,1.784389842373702e-07,11746,-0.372243,2.45357,-1.570263
-0.0770276143883428,-0.5653596209197176,-0.1855113238521381,0.0028118546735442,0.0004811968701689,-0.0013140561249344,4.092982433988991e-07,-8.892828221415382e-06,7.960687142165259e-08,11747,-0.308235,2.561615,-1.222267
-0.0601995519046608,-0.4917233800503811,-0.2620647898069133,0.0028748521311434,0.0005331921514814,-0.0012087992165765,5.438217561862832e-07,-9.905283310093753e-06,-3.209090150052603e-08,11748,-0.165342,2.669413,-0.816542
-0.0102278691910415,-0.4376410551128772,-0.4283376890025221,0.0029005393235306,0.0005655060750462,-0.0010848766091927,7.040215686539581e-07,-1.1393206056521336e-05,-1.4878589280403096e-07,11749,0.046764,2.780856,-0.401358
0.0725220215523729,-0.4295215343230378,-0.6362793878030142,0.0028878707250576,0.0005762637923778,-0.0009378902816006,8.634210906587759e-07,-1.333082875586035e-05,-2.340184337179037e-07,11750,0.308159,2.933179,0.053657
0.1371930130470423,-0.4198232433449937,-0.7232366111115929,0.0028332559254227,0.0005617455525537,-0.0007399368570272,9.467006723927186e-07,-1.5059013798034578e-05,-2.2185819669336002e-07,11751,0.515282,3.24467,0.502017
0.2081797223406066,-0.3771850071847674,-0.6935294321596353,0.002735379275766,0.0005188349619981,-0.0004595208662797,9.405530654504508e-07,-1.6722427851081942e-05,-8.524899391193879e-08,11752,0.780384,3.500244,1.047737
0.3256455240093488,-0.3099014277420163,-0.6145367324217385,0.0025941257933223,0.0004442155166698,-5.080428496404064e-05,9.332860917262332e-07,-1.883861925721617e-05,8.055974764143539e-08,11753,0.934791,3.802637,1.47387
0.423482165243592,-0.2603894616737097,-0.5948448220995444,0.0024095181281814,0.0003406943126361,0.0004923376283261,1.041765689200621e-06,-2.126631453399957e-05,1.0532536091657556e-07,11754,0.984953,4.12507,1.734359
0.4520078132109811,-0.2316367767426256,-0.6053388764239529,0.0021825150133618,0.0002186696718598,0.0011290778119988,1.289349516622427e-06,-2.3050289311028623e-05,-9.930777357214476e-08,11755,1.152054,4.234766,2.138718
0.458632009838538,-0.1924942285474392,-0.2562543347574387,0.0019152029196086,9.385742604704028e-05,0.0018013494004106,1.543691422105474e-06,-2.299162559933625e-05,-4.358469665850347e-07,11756,1.214659,3.987831,2.630925
0.463013666282703,-0.1213717258746346,0.4530277194029983,0.0016111300923728,-8.955859656925287e-06,0.0024109273131479,1.6705599596149316e-06,-2.075480557490953e-05,-7.567141662865263e-07,11757,1.087634,4.067822,3.705677
0.4435644154536098,0.1265048183015472,0.8790436851828611,0.0012779039458771,-8.035810062782104e-05,0.0029002654837636,1.6712815397060295e-06,-1.66595094020321e-05,-1.0407337919576884e-06,11758,0.462209,3.318191,3.913204
0.4256203583662832,0.6118268970246995,0.8236885436848858,0.0009283176633998,-0.0001277731689564,0.0032554408389311,1.598369784434436e-06,-1.1198617057207883e-05,-1.3119866425993088e-06,11759,-0.407376,3.228699,3.633935
0.4237666133746103,1.0045874618997814,0.7301384528645359,0.000580886521233,-0.0001613750937765,0.0034461545793321,1.4610762432490592e-06,-5.42834809393819e-06,-1.513314642437193e-06,11760,-0.746144,2.552471,3.600957
0.3910662824198363,1.0488964186928815,0.7417238253802246,0.0002624669368621,-0.0002024076361364,0.0034462952052213,1.2487311737251435e-06,-3.391699302828048e-07,-1.575464018731256e-06,11761,-1.196425,2.851051,4.26196
0.3198067761246002,0.9505020497662622,0.6833105059749247,-1.3048981160767964e-05,-0.000258020433508,0.0032557769492459,9.864325713418785e-07,4.005030727887206e-06,-1.5239612987902529e-06,11762,-1.694947,2.514612,4.510239
0.2363148366161351,0.8644174559848667,0.6017117439815995,-0.0002455676741244,-0.0003192875409179,0.0029004508825338,6.960850101755385e-07,8.008149345334456e-06,-1.4026975268154425e-06,11763,-2.117441,2.188814,4.333654
0.1019992780245823,0.7086866383912402,0.5465146858125904,-0.0004367321792613,-0.0003797619357659,0.0024435583666634,3.708151756866734e-07,1.1328368161123546e-05,-1.1848271228395191e-06,11764,-2.379647,2.170085,4.033818
-0.0773550023896005,0.5726984845053564,0.4082470496523349,-0.0005968137932469,-0.0004279698025444,0.0020008713545525,7.750773477887853e-08,1.2956385282124483e-05,-9.110000201156756e-07,11765,-2.460267,2.27075,3.832762
-0.1729213891430826,0.5651569268252683,0.1803400861511881,-0.0007317275590283,-0.0004605037822908,0.0016247873595638,-7.897859878768444e-08,1.298581771053477e-05,-7.284913494177858e-07,11766,-2.484768,2.249275,3.70037
-0.1518475632421328,0.5789033197484432,-0.0117905315274813,-0.0008427370535985,-0.0004845704383261,0.0013039613854584,-1.0173641880692729e-07,1.2462960764906196e-05,-6.864661286894389e-07,11767,-2.539434,2.196645,3.696623
-0.1526619569146314,0.5473605583851116,-0.0676698504127777,-0.0009395231899719,-0.0005064588809418,0.0010330385796756,-6.268333381925291e-08,1.178938488470465e-05,-7.098103336209148e-07,11768,-2.63039,2.21042,3.701657
-0.2301590467881257,0.5140198823256786,-0.05477850255102,-0.0010383546643053,-0.0005362380378014,0.0007808316494064,-9.6934621099967e-09,1.1104791734344034e-05,-7.469649320926051e-07,11769,-2.696021,2.306098,3.667004
-0.2950413521607771,0.482755433792632,-0.1284575250787762,-0.0011457093791787,-0.0005782658197339,0.0005435925872366,1.7841408314098946e-08,1.090893576374898e-05,-7.740095861805459e-07,11770,-2.644874,2.285247,3.684504
-0.300359803168388,0.4299919739285335,-0.3059971080588108,-0.0012590659315343,-0.0006295579627378,0.0003522351207183,-4.219393023898692e-08,1.1459768304133769e-05,-7.218842103924976e-07,11771,-2.576206,2.280686,3.6911
-0.2759125039392174,0.3726345021914968,-0.4761925566357118,-0.0013735290011546,-0.0006878542247048,0.0002222995270143,-2.347726568310299e-07,1.2287882777616853e-05,-5.112757738836654e-07,11772,-2.527035,2.208167,3.641769
-0.2476533515749686,0.3329369928763345,-0.6033726244522244,-0.0014769462296015,-0.0007483145559912,0.0001687628170864,-5.026894408061385e-07,1.2645292823722384e-05,-1.842251915104183e-07,11773,-2.579928,2.252685,3.466536
-0.2105621073995165,0.3083378964335229,-0.7650815619257426,-0.0015627225348026,-0.0008075264372799,0.0001873811863564,-7.156754989301924e-07,1.2546219935630107e-05,8.655631452183415e-08,11774,-2.652219,2.206444,3.196043
-0.1648405186040152,0.2952832774527779,-0.9440732877772818,-0.001630036252786,-0.0008641237207333,0.0002451864140761,-8.463677170198989e-07,1.291226533216886e-05,2.172691651861584e-07,11775,-2.780384,2.222334,2.93186
-0.0868836954334482,0.2808172014722365,-0.9918480571076972,-0.0016731827142582,-0.0009138298124105,0.0002956840207463,-9.82300319186888e-07,1.4593110414399846e-05,2.743681159912104e-07,11776,-2.935832,2.101961,2.649104
0.0985350526653561,0.2466713247931071,-0.8901952445888672,-0.0016841512522302,-0.000950200734754,0.0002658808485913,-1.1124067830365726e-06,1.7350994338066693e-05,2.5917500633699985e-07,11777,-3.134393,1.978506,2.463406
0.3347622953545063,0.2043769671579272,-0.8191757223854272,-0.0016586005095434,-0.0009700393367494,0.0001241867240818,-1.148846455887304e-06,2.006188172799384e-05,1.319709272723545e-07,11778,-3.322024,1.816792,2.394102
0.4432821287533555,0.1807931952944192,-0.7919048499067569,-0.0015949886252241,-0.00097305786425,-0.000114976324918,-1.1475626475158555e-06,2.191062747434969e-05,1.9717215432639537e-08,11779,-3.44981,1.641906,2.406147
0.4670450345455785,0.1389512781333707,-0.589684268669978,-0.0014935192905335,-0.0009598548031011,-0.0004334700676665,-1.215206308619332e-06,2.2405967830826407e-05,9.062584489307985e-08,11780,-3.417361,1.058633,2.202296
0.5964300510908153,0.0452302274116617,-0.216196577489776,-0.0013578681757318,-0.0009335140591568,-0.0007869690829077,-1.2728417943006837e-06,2.0853367882949105e-05,2.833425571418868e-07,11781,-3.189622,0.75268,2.008451
0.7691732843684181,0.0023125158961364,0.1690906686917171,-0.0011891470433124,-0.0008955272552343,-0.0011453731179898,-1.1520478139276991e-06,1.7164776484588914e-05,3.7868431525829945e-07,11782,-2.531914,0.560866,1.397435
0.8184765406632328,-0.0230237501633282,0.587110357921072,-0.0009860561930224,-0.000845808649306,-0.0014945530774659,-8.814946494567224e-07,1.253712392726811e-05,3.321265696895327e-07,11783,-2.241355,1.712604,1.637059
0.7828156066048355,-0.2938211731064795,0.9703950124164108,-0.0007494848769542,-0.0007862083509453,-0.0017951148881923,-6.453361860750001e-07,8.300035336350513e-06,2.993958656313892e-07,11784,-1.613028,1.206789,2.195356
0.7323128120947784,-0.7482971900554587,1.093442481444018,-0.0004813914696571,-0.0007198227490617,-0.0019887128613514,-4.864199468301489e-07,4.734313864115017e-06,3.218570661030951e-07,11785,-1.372982,0.950747,2.022058
0.6463477736212044,-0.9946806313162792,0.9997048308372626,-0.0001840712346862,-0.0006481489915296,-0.0020526374056891,-3.495976902811981e-07,1.8197139113954768e-06,3.2991637642563217e-07,11786,-1.108377,1.081913,1.44126
0.526767065113692,-0.9281957396744662,0.8534487532020426,0.0001390691845325,-0.0005713936473028,-0.0019986499024793,-2.6115898794000373e-07,-2.518231140524504e-07,3.470021636579957e-07,11787,-0.573251,1.064818,1.171302
0.4065525336027213,-0.7575107938505543,0.6115783329142539,0.0004834435973822,-0.0004894403266325,-0.0018529043906292,-2.154831627144662e-07,-1.6368570215639863e-06,3.811505590389214e-07,11788,-0.187169,1.304759,1.472506
0.316092565514708,-0.6483239541616109,0.357088313183191,0.0008428610295332,-0.0004011001713966,-0.0016744402161911,-1.245369171761893e-07,-2.7170623925245647e-06,3.41002397814085e-07,11789,0.052955,0.926103,1.66921
0.2199811537251178,-0.6452868051602867,0.2655231086778654,0.0012068689077792,-0.0003068260330712,-0.0014928219015924,3.9554753275170495e-08,-3.740440474795716e-06,1.9648966630848415e-07,11790,-0.018855,1.057732,1.798975
0.008342161998445,-0.695295806698568,0.228522332056693,0.0015595685277179,-0.0002089016951107,-0.0013072083831793,1.9584391014663925e-07,-4.684861779261089e-06,5.28866588974701e-08,11791,0.065003,1.128644,2.081997
-0.2914477854370416,-0.6793610055228316,0.1272740815071358,0.0018789521026922,-0.0001096674557795,-0.0011335003412941,2.8394073599619937e-07,-5.685680735899757e-06,4.001956245883177e-09,11792,0.195373,1.346773,2.377233
-0.4782885657987054,-0.5659346920973162,0.0017346181883522,0.0021341474372029,-1.2391498697361236e-05,-0.0009901410758533,3.428329393495047e-07,-7.149286032292233e-06,1.8441631601804712e-08,11793,0.307844,1.537343,2.608923
-0.4859087494993502,-0.4238950380386463,-0.1411739852246324,0.0023084927249222,8.060730722145282e-05,-0.0008861073856547,3.730965475981538e-07,-8.58446909795556e-06,6.096632490788979e-08,11794,0.392737,1.626818,2.775699
-0.4348860066371702,-0.315349297919154,-0.2854567245703473,0.0024005007988923,0.0001681465218932,-0.0008244569207581,3.405745674948695e-07,-9.222329093065637e-06,1.384049624904419e-07,11795,0.45354,1.795275,2.984521
-0.4021221804215692,-0.2736177715138554,-0.3810053208479701,0.0024109541043158,0.0002485593731627,-0.0007970122492681,3.308597034221161e-07,-9.71105161373207e-06,1.8792827202454897e-07,11796,0.539929,1.973301,3.258985
-0.384835792157178,-0.2636252868384995,-0.4501406383043898,0.0023504892348068,0.0003202018217365,-0.0007798602010219,4.462321466084304e-07,-1.1313909273079377e-05,1.5028604149263594e-07,11797,0.708349,2.064382,3.538989
-0.344901731885129,-0.2454319142178889,-0.5346642557442086,0.0022257378016811,0.0003804996992976,-0.0007493392613708,6.471220805482244e-07,-1.4414234318934316e-05,9.40520020524426e-08,11798,0.91931,2.176632,3.71497
-0.2307212188000573,-0.2367493276234611,-0.5780956362427357,0.0020392745074509,0.0004255918562338,-0.000678008356187,8.21374442677424e-07,-1.838633693099719e-05,1.283102191226141e-07,11799,1.214439,2.368147,3.889806
-0.0521534575953078,-0.2276505424836071,-0.5497648441436513,0.0018041082674765,0.0004509480702287,-0.0005188193013177,9.471679822197788e-07,-2.2742235524793475e-05,2.512146812183134e-07,11800,1.539205,2.67594,4.114173
0.1060157762179774,-0.1920413382033896,-0.5066920223175476,0.0015421962884262,0.0004507723024679,-0.0002031057864111,1.1035594240819836e-06,-2.7537121723199612e-05,3.588636764374607e-07,11801,1.780086,2.915716,4.237411
0.1941214767214404,-0.1492837685497132,-0.4496387709597954,0.0012626894207213,0.0004264234945925,0.0002879850529962,1.329007435165956e-06,-3.187333532272679e-05,3.4875646778513665e-07,11802,1.865182,3.354386,4.231819
0.261688744107805,-0.1119506723681063,-0.4200630317754165,0.0009627555814977,0.0003876732093025,0.0009195317865532,1.6147773923403365e-06,-3.426865216194566e-05,1.3858584797423188e-07,11803,2.158899,3.318654,4.36366
0.3048084112211249,-0.0643915120019031,-0.4036162722396405,0.0006371784486969,0.0003494345100753,0.0016350200190923,1.922233958065355e-06,-3.408943139444956e-05,-2.721314745780055e-07,11804,2.287948,3.029169,4.604644
0.2865307522789441,-0.0404479878810866,-0.1196874019135525,0.0002719487989899,0.0003359758753736,0.0023289236351617,2.111345708546912e-06,-3.104628023351776e-05,-7.180754182139006e-07,11805,2.088756,3.148774,5.561633
0.3662041847931014,0.0144136322547772,0.4491165247082077,-0.0001299491646952,0.0003567227339785,0.0029321302549082,2.0729670746836395e-06,-2.552183787015397e-05,-1.0267062569147817e-06,11806,1.635537,2.400208,6.182329
0.7155041850603157,0.3118809685848085,0.8211810658220198,-0.0005460285523657,0.000404871176588,0.0034122404284823,1.8581140111032852e-06,-1.867477494142609e-05,-1.1963916757346368e-06,11807,0.810288,1.90078,5.901128
1.1184401824607249,0.7701579764723776,0.7920879841637359,-0.0009501001702351,0.0004718695669017,0.0037045658816573,1.5490496604355823e-06,-1.1237955603922889e-05,-1.2894733484192758e-06,11808,0.029849,1.817709,5.281965
1.11476749930003,0.9859756612950736,0.6847849150043628,-0.0013028888832867,0.0005394463874874,0.0037289472214585,1.1888908701424943e-06,-4.019541934431828e-06,-1.3022723662073432e-06,11809,-0.363984,1.591938,5.644809
0.6439277079346387,0.9085799591925768,0.6616896178779536,-0.0015837370959443,0.0005993854942176,0.0034683958511574,8.466660019134078e-07,1.925686284934171e-06,-1.2543126221669392e-06,11810,-1.175641,1.881484,5.983301
0.1104292717441086,0.8208770047178038,0.6061232551700957,-0.0017933137172895,0.0006550184001054,0.0029714660200237,5.865898892199345e-07,6.359663646757482e-06,-1.2208009102479455e-06,11811,-1.773666,1.320436,5.910786
-0.2472381455805439,0.7445370253025516,0.5522723875117383,-0.0019314353725362,0.0007050396916987,0.002335270334648,3.62050374079431e-07,9.594347579357596e-06,-1.1601993890552834e-06,11812,-2.232583,1.175086,5.441367
-0.480457377825383,0.597846865701368,0.516016468835128,-0.0020071731728802,0.0007487331639847,0.0017406638924552,6.56234210314781e-08,1.1722303665060373e-05,-9.232856680545624e-07,11813,-2.356277,1.535353,4.969762
-0.6176278412097114,0.505312454402673,0.3628642816299368,-0.0020267472606575,0.0007825033474287,0.0012671221677487,-3.118931895279767e-07,1.2778174627710613e-05,-4.929027759819202e-07,11814,-2.329928,1.735732,4.60296
-0.6632509526946253,0.5084928205464616,0.1195684192623047,-0.0019925585906006,0.0007976907330066,0.0008883561403353,-6.882471461149495e-07,1.3338578494223709e-05,-2.1555520132764765e-08,11815,-2.365517,1.811308,4.359108
-0.685633540404633,0.5077151512013147,-0.0660164082342121,-0.0019188240020343,0.0007855141140534,0.0005913998453291,-9.918802122691909e-07,1.4044009943198306e-05,3.477129988491884e-07,11816,-2.470625,1.856554,4.191787
-0.7004438464646162,0.4666062602547597,-0.1480823538704909,-0.0018304882358072,0.0007350421248281,0.0003249328195457,-1.1985300692072164e-06,1.4678453823030466e-05,5.906503915534084e-07,11817,-2.602081,2.04244,4.112669
-0.6603279415753319,0.3789427145166194,-0.1833329277454448,-0.0017385162829418,0.0006403326664448,7.309739685059269e-05,-1.3344316174114318e-06,1.50953067709657e-05,7.453535654825116e-07,11818,-2.651607,2.045693,4.086069
-0.6004563291719252,0.2596821167074162,-0.2402966883190929,-0.0016410073474067,0.0005015766425622,-0.0001330917772992,-1.4396225132042918e-06,1.5926176064093063e-05,8.246560206838815e-07,11819,-2.742791,2.109831,3.961398
-0.5714081952571661,0.1756335846851542,-0.34716580535742,-0.0015347220516521,0.0003204320239339,-0.0002922037339441,-1.535755026577042e-06,1.7141564482289766e-05,8.631821812761152e-07,11820,-2.827059,2.109819,3.840333
-0.5420793897649532,0.1546018252620474,-0.4709104748665491,-0.0014082224909241,0.0001029568727679,-0.000413179063827,-1.6513471337424931e-06,1.7967948205743723e-05,9.518182324545692e-07,11821,-2.960405,2.129724,3.715461
-0.4387289088316909,0.1741369043239854,-0.5416166462788177,-0.0012607820841626,-0.0001436890414466,-0.0005100881771751,-1.8166421412106384e-06,1.844193652800352e-05,1.1320417624166212e-06,11822,-3.131464,2.103735,3.477258
-0.2292570470378588,0.2337724433720379,-0.5776659279253005,-0.001103939626685,-0.00041058719526,-0.0006137678992729,-1.999250284554939e-06,1.8999661538837103e-05,1.3338190749713568e-06,11823,-3.318073,2.115435,3.257789
-0.0236143307221862,0.2935514671057353,-0.5974680795928915,-0.0009474765156778,-0.0006815216477237,-0.0007647734595289,-2.1156375842621267e-06,1.9652229922054327e-05,1.445573243170732e-06,11824,-3.467355,2.117918,3.119016
0.0570921079810213,0.2751885796061849,-0.5373708804657245,-0.0008050896120264,-0.0009318815048789,-0.0010196256833578,-2.1292488569541374e-06,2.057496977108491e-05,1.409780827260101e-06,11825,-3.580197,2.141335,3.129562
0.0596926868103659,0.1973405066974881,-0.50112649277773,-0.0006842948986775,-0.0011482315863032,-0.0013897317494524,-2.058882114175412e-06,2.178120370310559e-05,1.2499386002514078e-06,11826,-3.626809,2.06361,3.289164
0.0707836538917869,0.1157435506626618,-0.5181763429719812,-0.000584490622686,-0.0013282337425422,-0.0018345333693317,-1.8957710184309825e-06,2.215887088572689e-05,1.021367236990907e-06,11827,-3.597119,1.636242,3.234318
0.1064507400261747,0.0425869207353597,-0.2565337415137336,-0.0005057821203558,-0.0014700714523038,-0.0022916290795049,-1.6004349604020814e-06,2.0306052182649117e-05,7.575780182602312e-07,11828,-3.404301,1.09898,2.932602
0.2458304583310501,-0.0006057136923334,0.3259921897445327,-0.0004453706192369,-0.0015781342741715,-0.0026508606606883,-1.2007370271184512e-06,1.630835735964797e-05,4.90811787209613e-07,11829,-2.720672,0.602058,2.568357
0.5603201522438864,-0.0649100543876846,0.7520234970466606,-0.0004005319149624,-0.001649111141539,-0.0028598249398388,-8.035186936675919e-07,1.1367517089121902e-05,2.908539491570476e-07,11830,-2.078286,1.282027,2.300378
0.8633839320208372,-0.2603212171400273,0.8040790118389912,-0.0003689844309117,-0.0016706832005428,-0.0029286347782521,-4.831567730915509e-07,6.153129840934296e-06,2.142038985650198e-07,11831,-1.356761,1.431903,2.606942
0.9368197632526236,-0.5124001949575401,0.7494560850345184,-0.000343753840479,-0.0016324696405018,-0.0028573399375942,-2.465243811359452e-07,1.2016399722827436e-06,2.3285385548258366e-07,11832,-0.850509,0.691065,2.56583
0.8674344205328204,-0.6299803021291199,0.7269447658886987,-0.0003130840054909,-0.0015219289125484,-0.0026658698130694,-6.29075876155664e-08,-2.559534047941338e-06,2.466009861973817e-07,11833,-0.653245,0.451081,1.952511
0.7161906927452786,-0.6053926940999903,0.6245235517155014,-0.0002721114222495,-0.0013371905250911,-0.0023753690797278,1.165971937673616e-07,-5.0547596177189e-06,1.8424034888597836e-07,11834,-0.120722,0.206058,1.61524
0.3580271760609066,-0.5539473288465601,0.4654552925391045,-0.0002227003525608,-0.0010899460819227,-0.0020050609861115,3.1179106660900585e-07,-7.145004713368878e-06,7.135574075988287e-08,11835,0.261137,0.456135,1.733779
-0.0141796276164089,-0.5070385957398161,0.3552881227203678,-0.0001677474355511,-0.0007980724208951,-0.0016094946883228,5.193734549898757e-07,-9.047509528224409e-06,-7.400395134879419e-08,11836,0.452121,0.352279,1.943761
-0.1185054595305594,-0.4643763607852813,0.3059881848627346,-0.0001146847314807,-0.000492108810637,-0.0012802192091144,7.223392513022072e-07,-9.912522849376603e-06,-2.8146871032839496e-07,11837,0.397818,0.221288,2.057634
-0.1860054541603474,-0.4818427020511275,0.272507691107277,-6.743189065543341e-05,-0.0001917762538607,-0.0010595680913535,8.445457633589603e-07,-9.271075470122642e-06,-4.766839478694288e-07,11838,0.288351,0.417554,2.381009
-0.4246381915176941,-0.5683539296300504,0.1812127778172944,-2.6079494892424237e-05,9.436465558724116e-05,-0.0009425951742438,8.212192640474125e-07,-7.986092371161522e-06,-5.154999313764814e-07,11839,0.32226,0.476351,2.734655
-0.5842153707957342,-0.6138274739591809,-0.0226752211837052,6.094992584848108e-06,0.0003509333655287,-0.0009208238339282,7.117798144831771e-07,-7.408661846195204e-06,-3.906839661897194e-07,11840,0.27565,0.745168,2.924959
-0.538342314627547,-0.554395166017573,-0.2996090831570316,2.4302542329804307e-05,0.0005609820602086,-0.000957695289247,6.417797532972684e-07,-8.348179952749019e-06,-2.2183757006499242e-07,11841,0.242262,1.011025,2.944369
-0.4689515446699555,-0.470785829417548,-0.4774232404576409,2.6083853679316345e-05,0.0007130666886355,-0.0010302607291138,6.673450210474107e-07,-1.0776109080730629e-05,-9.067316829358005e-08,11842,0.323196,1.119233,2.985082
-0.4538410057952499,-0.4203538218489984,-0.473719470719347,1.0716035028631089e-05,0.0008001768812704,-0.0011303501077636,7.490962039096788e-07,-1.3864140840978684e-05,2.106913172084364e-09,11843,0.452496,1.249285,3.119591
-0.4258890635748623,-0.3801638373511559,-0.4424112797161363,-2.144655568532356e-05,0.0008207083011353,-0.0012213161643723,8.231940162788246e-07,-1.644826132694024e-05,6.997980033976406e-08,11844,0.629939,1.354607,3.253505
-0.3562678218804722,-0.3695289606202121,-0.4695171369307996,-6.789043670498075e-05,0.0007812900912726,-0.0012436172435365,8.448009635057812e-07,-1.808672527378668e-05,1.4581661471290561e-07,11845,0.840761,1.543171,3.398426
-0.2483121783896642,-0.3955764646733575,-0.4985738227396101,-0.0001277953041369,0.0006897481008785,-0.0011599509616172,8.009017518539588e-07,-1.960582439686831e-05,3.029922525830977e-07,11846,1.121039,1.802432,3.57378
-0.1109414857794115,-0.3927469680789874,-0.4969627275606847,-0.0002019583132308,0.0005572722151765,-0.0009503019004306,7.354470740932852e-07,-2.181066154663731e-05,5.383867385069238e-07,11847,1.319967,2.063117,3.599571
0.0309993415179398,-0.3347303359590692,-0.4408874677535966,-0.0002899099694828,0.0004067896212624,-0.0005912937104724,7.345254565412402e-07,-2.4345855630647224e-05,7.121904528053483e-07,11848,1.407609,2.381922,3.510418
0.1153073782796775,-0.237638171093964,-0.4300720871945138,-0.0003906696117678,0.0002747698535366,-6.600274635291427e-05,8.402774256083081e-07,-2.6237531961963736e-05,6.981867573050128e-07,11849,1.54102,2.575897,3.462375
0.104734225500514,-0.1549173445720821,-0.4496063198998848,-0.0005029865452805,0.0001782663458595,0.0006068225883086,9.93333404463744e-07,-2.635952688474309e-05,4.975828900052719e-07,11850,1.670263,2.186493,3.339036
0.1380572595829872,-0.10841646768961,-0.1013543386402548,-0.0006248757798612,0.000114676021588,0.0013660658500657,1.093721140318931e-06,-2.395366498242276e-05,1.9519627363852738e-07,11851,1.41585,2.088311,3.648127
0.3675102691144318,0.0764999646726183,0.6180997099643142,-0.0007537609241096,7.930966305629708e-05,0.002105571316897,1.06593598810432e-06,-1.91819593889721e-05,-9.462782111005016e-08,11852,0.752177,1.76543,3.894988
0.6879456976167604,0.4588648100073881,1.061994783877203,-0.000886190371026,5.534973411064492e-05,0.0026518959089773,8.838072991179148e-07,-1.2787460555399656e-05,-2.852433090284497e-07,11853,0.040465,1.304547,3.679557
0.8853243044335506,0.7341333851212906,1.0021919022913313,-0.0010163968257117,3.69418576091079e-05,0.0029331710764065,6.053571903751635e-07,-6.008014382661003e-06,-3.7042724809722153e-07,11854,-0.504635,1.007944,3.390708
0.851119291956745,0.735320822326605,0.8673194692564625,-0.0011356731435151,3.061557795079849e-05,0.0029851920926571,3.315052606258298e-07,-2.7365457771085546e-07,-3.9523587798915593e-07,11855,-0.873312,0.974586,3.760278
0.5838220069747406,0.6560726549471994,0.8346688911402255,-0.0012319682729454,3.558332225265452e-05,0.0028542840219641,1.352264708607919e-07,3.697098325426277e-06,-4.162209082516346e-07,11856,-1.408948,0.944948,4.087872
0.2131446021442493,0.5972187143787778,0.7491410647499863,-0.0012883944351718,4.922513171832287e-05,0.0026508790366496,2.275178969102393e-08,6.149465542506475e-06,-4.507945190009013e-07,11857,-1.873106,0.530262,4.064326
-0.0828090997104097,0.4963993634449372,0.6674019603686434,-0.0012972546142384,7.046698569679853e-05,0.002426809061102,-1.0258708840510198e-07,7.903744597759258e-06,-4.1082754743271306e-07,11858,-2.216524,0.405598,3.747465
-0.265230958145511,0.4086348497850536,0.5990302110190204,-0.0012608552861141,9.75993423310614e-05,0.002166973497088,-3.396764908796984e-07,9.287098360304411e-06,-1.878074070810465e-07,11859,-2.346822,0.618963,3.50175
-0.4030490396076998,0.385721733221187,0.3460216016355602,-0.0011841198805229,0.0001302649704347,0.0018944885907438,-6.22040176948328e-07,9.86402521696812e-06,1.493737366960171e-07,11860,-2.364139,0.762165,3.417029
-0.5458194886953285,0.3709474702937572,-0.0315448921417798,-0.0010795984665691,0.0001697404180079,0.0016409722937653,-7.829422425150165e-07,9.872562812887128e-06,3.652926176872188e-07,11861,-2.425139,0.736386,3.473573
-0.6765204341672217,0.3472128832248561,-0.2519758449305502,-0.0009597642982592,0.0002120815356908,0.0014221079410635,-7.823197416114517e-07,1.033441435927305e-05,3.424878413036232e-07,11862,-2.604167,0.870935,3.608042
-0.7285527174662585,0.3269989996107977,-0.2858306946205916,-0.0008378497995974,0.0002477019264437,0.0012474273181444,-7.301864273033444e-07,1.152910472245312e-05,2.005913816507086e-07,11863,-2.68101,1.002809,3.826131
-0.6873460427889875,0.3061587526386597,-0.3639765421811796,-0.0007377336228034,0.0002639549439274,0.0011100980303353,-6.781632032898179e-07,1.2545824143480964e-05,6.1427809822743e-08,11864,-2.699809,1.12258,4.013663
-0.6246970153179185,0.2831361326121301,-0.5436576318732153,-0.0006946682394724,0.0002422724539274,0.0009805550796807,-5.639939347082335e-07,1.235936743189579e-05,-8.519039293327636e-08,11865,-2.672033,1.12626,4.100933
-0.585192759553898,0.2590355657322208,-0.6832785883752406,-0.0007248931014355,0.0001743355070723,0.000845028153276,-4.016729053682353e-07,1.1284200240546338e-05,-2.350358648729118e-07,11866,-2.641348,1.19683,4.241897
-0.5570558298522251,0.2581942912483768,-0.7519905326982568,-0.0008252063003826,6.318019542716515e-05,0.0007024353723763,-3.398215613234238e-07,1.0842222674983713e-05,-2.9288516209318813e-07,11867,-2.65507,1.22673,4.331799
-0.5034845711652604,0.2948794044603672,-0.7952059544024412,-0.000987727511534,-8.625308318870669e-05,0.0005383709386674,-4.624995748770633e-07,1.1863350023577056e-05,-2.0280983291968762e-07,11868,-2.76072,1.255744,4.305654
-0.3075568533994519,0.3252778616622274,-0.8138359419229938,-0.0011898953072048,-0.0002615369393194,0.0003313964197492,-6.723669981593373e-07,1.3822870928637767e-05,-5.332883746342215e-08,11869,-2.879352,1.181894,4.257653
0.0354565677176492,0.3127258169226655,-0.7912533337212584,-0.0014142859271597,-0.0004510764902739,6.74837956654836e-05,-8.406304495454534e-07,1.6272623695350248e-05,1.6733830980227904e-08,11870,-3.018526,1.10706,4.255844
0.2809545868370514,0.2713580039935279,-0.736079558782498,-0.0016480276502637,-0.0006436811580358,-0.0002626220538224,-9.56014253047594e-07,1.929903895285948e-05,-1.8815015171062137e-08,11871,-3.19072,1.161811,4.404848
0.3185968908637887,0.2186217078562844,-0.6819478126731454,-0.0018624240142208,-0.0008181818915682,-0.000667226336003,-1.0301848149409745e-06,2.1805774175575123e-05,-7.955447505809141e-08,11872,-3.342656,1.029437,4.617183
0.2770259326619306,0.1688209039695178,-0.6365098565223799,-0.0020145523144518,-0.000943228190584,-0.001150505109199,-9.77361127631762e-07,2.1612129447105137e-05,-1.3966782780795922e-07,11873,-3.353515,0.316294,4.469636
0.258876594192582,0.0894384856599316,-0.5267027422293331,-0.0020834567056345,-0.0010032229758696,-0.0016944236270506,-7.579537996998799e-07,1.863349805781649e-05,-2.444179811211757e-07,11874,-3.142746,-0.118433,4.266074
0.369397577908012,-0.0969782027101124,-0.1708104918777024,-0.002069462248105,-0.0009982796529541,-0.0022536120315679,-5.173962282123447e-07,1.5009095092095366e-05,-3.362083290786035e-07,11875,-2.517044,-0.489087,3.429723
0.6282940009981043,-0.3410055858418078,0.4321752664326622,-0.0019779147178723,-0.0009316642725473,-0.002755540806596,-3.992437457776632e-07,1.1576287375756252e-05,-2.7495499353806245e-07,11876,-2.181602,0.721228,3.246303
0.8083981645361032,-0.5167872585529011,0.8955375506537732,-0.0018304133256874,-0.0008179424339054,-0.0030864810568497,-3.6129439497369225e-07,7.683104309763346e-06,-7.225026163091713e-08,11877,-1.520092,0.216905,3.427903
0.786846594606569,-0.6351610913321708,0.9771188513615652,-0.0016383794080649,-0.0006651548481727,-0.0032028215893793,-2.984151344721623e-07,3.750621002281192e-06,1.0289976365179442e-07,11878,-1.262017,-0.211567,2.985833
0.6951537795224216,-0.7378272751848605,0.8752529256224773,-0.0014028480319616,-0.000474638119187,-0.0031366359270317,-1.9907150191938337e-07,8.263275668695218e-07,1.627901913860791e-07,11879,-0.893517,-0.25987,2.303487
0.5089057050840864,-0.7586696358536277,0.7391152035737434,-0.0011381083134166,-0.0002576052718455,-0.0029338474354343,-9.275702589214854e-08,-1.4052875662031866e-06,1.659648844612541e-07,11880,-0.339867,-0.157761,1.96701
0.1583895511909718,-0.6855863665212565,0.5073372870150027,-0.0008672503009399,-3.2346027665995734e-05,-0.0026919203392353,2.4978428542509172e-08,-3.5975738928295043e-06,1.5295114253861368e-07,11881,0.150893,-0.050212,2.208333
-0.0799011182441609,-0.6144950180276154,0.2260863358530664,-0.0006015005734595,0.0001914373060792,-0.0024558846099171,1.4905407244660548e-07,-5.087993506708589e-06,9.020554528067692e-08,11882,0.300553,-0.230977,2.282146
-0.0765520214526656,-0.5920368105965099,0.0321633011841027,-0.0003421709894682,0.0004111244983336,-0.0022122077421617,2.49301771225944e-07,-5.467944119094465e-06,-1.1105785633883358e-08,11883,0.261959,-0.185841,2.375549
-0.1805523504467433,-0.6093175937400648,-0.053069786721701,-8.787361626996836e-05,0.0006250841495315,-0.0019710552782422,2.9417487096458977e-07,-5.7092343046246735e-06,-4.863056689057903e-08,11884,0.291933,-0.0228,2.570237
-0.5000919115078092,-0.6308277971933405,-0.077640403903144,0.0001711377993612,0.000836696441992,-0.0017394473938462,2.571688944103012e-07,-6.435922768804929e-06,5.3016510490480596e-08,11885,0.43116,0.142427,2.732234
-0.6969536851298908,-0.5956233285875645,-0.1075524554240674,0.0004342391276328,0.0010400320284627,-0.001522443898881,1.5544721612667578e-07,-7.178459354171509e-06,2.415494867213158e-07,11886,0.520922,0.435307,2.798612
-0.6548048175446148,-0.5121646001099203,-0.215384788520078,0.0006894667792342,0.0012184759171354,-0.0013307947867453,4.9427884430320696e-08,-7.655903229155408e-06,4.200532182723385e-07,11887,0.583513,0.678968,2.772577
-0.5801895683028444,-0.4244597181924224,-0.3593419611862402,0.0009266750326656,0.0013537714552574,-0.0011597782876713,-1.4620428882081482e-08,-8.541243385118503e-06,5.682914742666035e-07,11888,0.696563,0.888018,2.856216
-0.5584273359782437,-0.3275428314424021,-0.4246219069771959,0.0011322042939132,0.0014209271357031,-0.0009893686220055,-2.2796902257581976e-08,-1.054599223506162e-05,7.081623527679593e-07,11889,0.835451,1.142318,3.07956
-0.5259423699501732,-0.2457874185426871,-0.4291343120783163,0.0012977038945794,0.0014080082400721,-0.0008046750167517,1.9627646062879317e-08,-1.3433827623973472e-05,8.328744316117226e-07,11890,1.015035,1.289771,3.290047
-0.4752084415205604,-0.2501577274774866,-0.5075919557136419,0.0014218714274539,0.0013183435943855,-0.0005912135002595,6.442246612989716e-08,-1.6511832894382713e-05,9.693898090733882e-07,11891,1.202226,1.553988,3.483473
-0.3990159824956591,-0.3084401007919184,-0.6381073192193141,0.0015024839693057,0.0011580709976617,-0.0003219118041922,1.9428536603386818e-08,-1.938366780866631e-05,1.214626489925434e-06,11892,1.45274,1.922953,3.812882
-0.2841763897698094,-0.2862417768708801,-0.6574343569978367,0.0015394989781246,0.0009434815412836,4.230417611612988e-05,-1.055871615304241e-07,-2.2043405335605e-05,1.551291574197446e-06,11893,1.641881,2.228333,4.044982
-0.2125529530669935,-0.1441730081519997,-0.5985897183923009,0.0015328103425232,0.0006924808571185,0.0005131226687524,-1.2584876390373833e-07,-2.4416807889021755e-05,1.7354844720419575e-06,11894,1.764425,2.597625,4.171558
-0.1908445951113919,0.0026462006027765,-0.5642450046457689,0.0014818204276769,0.0004257382555172,0.0010730704866008,9.803877737703872e-08,-2.5920393788907992e-05,1.550540307398818e-06,11895,1.93679,2.759953,4.253799
-0.0391456093468041,0.0434385403279949,-0.4476024681300817,0.0013895965509316,0.0001800198550386,0.0016924731082521,4.965949307813691e-07,-2.611785480382709e-05,1.052343785043452e-06,11896,2.102848,2.316012,4.351563
0.2772822850580435,0.0798795835040315,-0.1829427547999484,0.0012628977777483,1.0114141461616216e-05,0.002314427554398,9.368778078387016e-07,-2.5157522284314447e-05,4.185835770463142e-07,11897,2.040477,2.355608,5.073622
0.5061960098307741,0.3010444691375342,0.1385408786690854,0.001105049734068,-5.812241165202538e-05,0.002889484940404,1.3407106648200618e-06,-2.277544678216328e-05,-2.606357928838081e-07,11898,1.905225,2.046493,6.324199
0.5341844422704274,0.6246722762521051,0.4716612099491644,0.0009164789840036,-2.8442093210989704e-05,0.00337309958619,1.6085257714516805e-06,-1.805877765237561e-05,-9.074663963414388e-07,11899,1.277197,1.362102,6.419887
0.5069921811283715,0.8174965163480211,0.7423436306954181,0.0006985967484048,8.939168678398171e-05,0.0036906308056522,1.654632145820807e-06,-1.1086773081120111e-05,-1.4085825813312271e-06,11900,0.472728,1.332445,5.992248
0.4762745360747095,0.8534852757157334,0.816895852254964,0.0004522475742944,0.0002644345524667,0.003738879655674,1.5470182170239758e-06,-3.7185521560647454e-06,-1.744038244317316e-06,11901,0.137551,0.802802,6.319734
0.413332664137414,0.8356915983118479,0.7482959001774592,0.0001836981734057,0.0004751290491549,0.0034937657480002,1.4245074099466874e-06,2.086669251238242e-06,-1.971329968531604e-06,11902,-0.604775,1.019998,6.912822
0.320005618599933,0.7920642950356855,0.6588709015220913,-9.400581540677256e-05,0.0007090987514266,0.0030167336909925,1.3097792698604834e-06,5.859141757915315e-06,-2.0824108059449287e-06,11903,-1.102286,0.298644,7.270169
0.1502567152114195,0.7319506337980877,0.4974076828889306,-0.0003638476037778,0.0009327504806084,0.0024121668338355,1.1080890565209106e-06,8.398247983995372e-06,-1.9960710980409136e-06,11904,-1.55115,0.147721,7.055054
-0.0756939800546116,0.6865523582015154,0.2928048929398621,-0.0006015647524933,0.0010948228611498,0.0018713767611644,7.506224010058027e-07,1.0634168062550955e-05,-1.6749752633488929e-06,11905,-1.598101,0.221433,6.835248
-0.3012354956297278,0.6484066085783917,0.1935292183781515,-0.0007943017554827,0.0011710530728567,0.0014773982846391,3.0538170937290854e-07,1.2662561883858184e-05,-1.2160345327970438e-06,11906,-1.64573,0.579868,6.644377
-0.5341617936664855,0.6101966643399037,0.1479269921940644,-0.0009417180274865,0.0011627190221742,0.001197091344489,-6.623103649518536e-08,1.4064776222828018e-05,-8.121735431667531e-07,11907,-1.707415,0.657695,6.547715
-0.6963106929560801,0.5745032231414493,0.0380356386707778,-0.0010447492920356,0.0010776399912856,0.0010110661721577,-2.528179127122408e-07,1.473120417067247e-05,-6.081135705255359e-07,11908,-1.877954,0.78085,6.548307
-0.6929268182360204,0.5220206389476383,-0.0800910456252054,-0.001111758190336,0.0009438385138468,0.0008575901221871,-2.6788505393478344e-07,1.4768740044155512e-05,-5.966576647683826e-07,11909,-2.031697,0.938312,6.567886
-0.6115018221611868,0.4552673199251034,-0.1371765406338432,-0.001147872063143,0.000775720586229,0.0007123500612024,-2.0690180154332825e-07,1.41757171946178e-05,-6.529331607117886e-07,11910,-2.099257,1.052959,6.517174
-0.5713323774444236,0.394761323092502,-0.2122845636980374,-0.0011547312443713,0.0005737674471731,0.000600640300542,-1.7697100697816161e-07,1.318128794335198e-05,-6.45939080791919e-07,11911,-2.156097,1.138601,6.273124
-0.5433255354665478,0.3383272496988423,-0.4019093744573272,-0.0011418074729312,0.0003538812848129,0.0005136619748037,-2.629349434458113e-07,1.2737035678698352e-05,-5.175400229747202e-07,11912,-2.190375,1.181751,5.981425
-0.4681737061619836,0.2830378819729056,-0.643682609862138,-0.0011251138105452,0.000141305063238,0.0004287392914651,-4.836640250465284e-07,1.365080473863662e-05,-2.898221624248976e-07,11913,-2.247186,1.218822,5.687415
-0.3406385838331313,0.2501714007167343,-0.7821065620531822,-0.0011114826309654,-5.176661928114635e-05,0.0003264494233693,-7.511353687226962e-07,1.5289539206782836e-05,-4.1086533276731735e-08,11914,-2.308289,1.156451,5.408717
-0.1658370115247837,0.2466978506021423,-0.7827794568363982,-0.0010992860266968,-0.0002237627012777,0.0001791733136063,-9.335837121434004e-07,1.650289319836001e-05,1.2108297628041658e-07,11915,-2.440911,1.116456,5.123562
0.0296282859735322,0.2303883433396908,-0.736924255198506,-0.0010852424384703,-0.00037689261598,-4.60552625521065e-05,-9.751838394251302e-07,1.729761377823302e-05,1.2026438706837152e-07,11916,-2.598016,1.050346,4.911899
0.1917287876180498,0.1668848107428787,-0.6727086016587156,-0.0010598608879769,-0.0005233385033591,-0.000389274898439,-8.99032500982157e-07,1.825866122415838e-05,-4.59070235180744e-08,11917,-2.690416,0.905985,4.850773
0.2615917176155933,0.1021354295084521,-0.6218980762211035,-0.0010197011248688,-0.0006642690675816,-0.0008540913755299,-7.460685271662734e-07,1.9133909308514253e-05,-3.042722645627733e-07,11918,-2.762107,0.756296,4.822678
0.2497383428136292,0.0728099790405035,-0.6104799846302567,-0.0009679363758188,-0.0007891441051967,-0.001401113953349,-5.995168657124259e-07,1.917227647528341e-05,-4.979866142698078e-07,11919,-2.784634,0.513894,4.749235
0.2639987947808427,0.0436797073268312,-0.4306412065020506,-0.0009046620554052,-0.0008906829452271,-0.0019654191362861,-5.354375785169431e-07,1.7979394782246334e-05,-5.01461157592454e-07,11920,-2.663308,0.028078,4.473008
0.3534210573134635,0.0402647291690917,0.0221973055115073,-0.0008299061020961,-0.0009593634212831,-0.0024349024435371,-5.024856118335046e-07,1.5412074911561923e-05,-3.71844164351542e-07,11921,-2.449111,-0.103503,4.120916
0.4575262195325355,0.0319599570934874,0.4450708486749468,-0.0007440314745133,-0.000989310304244,-0.0027534642720091,-4.2232913308226747e-07,1.1625876733151002e-05,-2.2118603858806373e-07,11922,-1.770401,-0.184966,3.395624
0.5534960149874906,-0.1684937420210654,0.6219531589133303,-0.0006467569809841,-0.0009801504252896,-0.0029242210378827,-3.303629991465104e-07,7.364131794629485e-06,-5.1201044836270074e-08,11923,-1.293589,0.829131,3.542932
0.6290642549388938,-0.5362259585471605,0.6769489339582611,-0.0005391278667949,-0.000930433991702,-0.0029407791465749,-2.6567140610044645e-07,3.4661942171390087e-06,1.3240743397265684e-07,11924,-0.657319,0.278607,3.798548
0.6015130885081471,-0.8143073630825965,0.6956141339326478,-0.0004234971620922,-0.0008399102725112,-0.0028159383752832,-1.826265901964095e-07,1.7545926605439126e-07,2.514887846330939e-07,11925,-0.544478,0.011854,3.13725
0.4566447865832352,-0.907517507270375,0.6520678335907871,-0.0003012016581897,-0.0007097468271703,-0.0025699390890531,-8.948999440537469e-08,-2.4307826536563363e-06,3.129197061261916e-07,11926,-0.138842,-0.196916,2.440476
0.2975225009880141,-0.8563075457248563,0.5855799309137957,-0.0001728762958862,-0.0005423279611834,-0.0022289043794764,-9.356959764427521e-08,-3.892027987218339e-06,4.302405116128066e-07,11927,0.254667,0.030389,2.244701
0.2184478770558877,-0.68792112342141,0.4965289437203625,-3.9664325902701925e-05,-0.0003436768742257,-0.0018589539485437,-1.936008564362616e-07,-4.318362198142787e-06,6.038012765737723e-07,11928,0.581832,0.061597,2.549896
0.2070507019551814,-0.5433294087214166,0.3837357173199219,9.717143341457284e-05,-0.0001242811512249,-0.0015717067191886,-2.229830541471008e-07,-4.601716367352071e-06,6.627435526417425e-07,11929,0.600502,-0.186384,2.601447
0.099314178185464,-0.5654653340006766,0.3152349896213452,0.0002364820051721,0.0001093074843748,-0.0014138021932402,-9.68293827040888e-08,-4.908891209187925e-06,5.084739233547366e-07,11930,0.421894,-0.054693,2.710232
-0.2214615484043048,-0.6608674196488522,0.2625630548475648,0.0003771110731439,0.0003540649115016,-0.0013670898970938,1.0412530152431885e-07,-4.950512635639345e-06,2.3584061387909846e-07,11931,0.389629,-0.019137,2.96623
-0.5492617647450962,-0.6995477304284339,0.2064641982197895,0.0005179900339979,0.0006052741534343,-0.0014061580543033,3.067883757128978e-07,-5.425031819776677e-06,-1.5216077718686882e-08,11932,0.367421,0.197456,3.149278
-0.627677276849071,-0.6781011455230247,0.178123348695848,0.0006581733586422,0.0008583306858732,-0.001465148948025,4.760212923205008e-07,-7.136954462376952e-06,-1.44991427878713e-07,11933,0.38077,0.407983,3.211631
-0.5519198723439912,-0.6217820601521908,0.0720957169124159,0.0007961660211184,0.0011020150076222,-0.0015117160436492,5.446462227653396e-07,-9.536861721066036e-06,-8.968025652865386e-08,11934,0.409023,0.58915,3.202227
-0.5090872604112677,-0.5616027363537675,-0.1280532700185694,0.0009298544708485,0.001316654960932,-0.001551056817188,4.839863061017447e-07,-1.1519856981164103e-05,1.2284528274785288e-07,11935,0.456272,0.774247,3.249677
-0.4840566150893661,-0.5055978161267471,-0.2414958586334399,0.0010567560028854,0.0014770394437979,-0.0015613447519008,3.719301719219176e-07,-1.302029157827764e-05,3.7843471040112587e-07,11936,0.504778,1.033634,3.327926
-0.4466292719633801,-0.4553580239984878,-0.2632218474861332,0.0011737080800322,0.0015483368767467,-0.0015101936350797,2.964070105496164e-07,-1.4664007155106976e-05,5.943950259825187e-07,11937,0.63975,1.284781,3.443098
-0.4040706636541398,-0.4299021722092213,-0.3296390530236135,0.0012785092632509,0.0015139491681006,-0.0013725759322448,2.510126826795005e-07,-1.6284759922856882e-05,7.706072730931785e-07,11938,0.832389,1.637536,3.607787
-0.3045530677941198,-0.4175989444245651,-0.39744677609542,0.0013699979744115,0.0013775248466294,-0.0011231945906792,2.140018911593544e-07,-1.7503394039937688e-05,9.106507269805284e-07,11939,1.0556,2.089742,3.851158
-0.1681085410086683,-0.3896081010725392,-0.3788820587277812,0.0014470301192286,0.001147449350536,-0.0007375441536596,2.1619197905838795e-07,-1.904564563524524e-05,1.0159241578134838e-06,11940,1.256097,2.472778,4.062417
-0.0838007812768191,-0.3452430478754372,-0.3290094922226024,0.0015089884558632,0.0008468700401619,-0.000193703893894,2.663761559358079e-07,-2.150501726011445e-05,1.1166215257051385e-06,11941,1.340912,2.728276,4.042196
0.0161400857076336,-0.3004519155404361,-0.3210638458684167,0.0015548242492263,0.0004989956743332,0.0004985579149109,3.6259503237684507e-07,-2.3917099719230183e-05,1.1578855010870422e-06,11942,1.413811,3.129797,4.020023
0.2595446311704105,-0.2389565377642116,-0.3148774228630073,0.0015829752099389,0.0001286176294055,0.0012903931819039,5.130558194757559e-07,-2.4761836453955364e-05,1.0243338668071376e-06,11943,1.642857,2.841045,4.130021
0.5302158866548887,-0.1496989524853136,-0.1809601121669672,0.0015922681593482,-0.0002185266597987,0.0020992323571967,6.618013793665814e-07,-2.33242222647218e-05,7.329029260134721e-07,11944,1.556837,2.941007,4.596241
0.62395197671084,-0.0036126198548247,0.1303195302778324,0.0015817006963075,-0.0004742523087179,0.0027889425093179,7.215940310811708e-07,-1.9764422581696187e-05,4.0965597008541673e-07,11945,1.260543,2.735206,5.489936
0.6023003872354669,0.2851747492366276,0.506180590778906,0.001551287994484,-0.0006061343706779,0.0032876903288603,6.683035396587837e-07,-1.4557084553717995e-05,1.273837159571194e-07,11946,0.581534,1.961778,5.310596
0.6043000186476144,0.6356833342015656,0.8118229684599536,0.0015024025057436,-0.0006180075780048,0.003590265135049,5.698918032550548e-07,-8.546062917449592e-06,-1.4737522885081234e-07,11947,-0.26614,1.940832,4.736023
0.5900377259276409,0.8020319366509632,0.9700728030281592,0.0014375063211542,-0.0005212383582858,0.0036831367690847,5.20079076910174e-07,-3.0951219511684934e-06,-4.557225447980024e-07,11948,-0.507444,1.278972,5.05882
0.5322870484720476,0.756624134151482,0.9513205044891536,0.0013608098036518,-0.0003533957085767,0.0035772412344801,5.020576446667821e-07,1.2167137659542023e-06,-7.323801050252764e-07,11949,-1.231213,1.625837,5.595221
0.4254800906241371,0.6824129088831543,0.8219054607083858,0.0012785799379232,-0.0001394293529529,0.0032943235022979,4.148733846473063e-07,5.112420359624045e-06,-8.805074534934246e-07,11950,-1.628882,0.778988,5.746166
0.1917601499793473,0.6339763274374004,0.6728551112783996,0.0011998925399007,0.0001082181023761,0.0028666087577574,2.507936690466099e-07,8.786114446085067e-06,-9.074493055962854e-07,11951,-2.13346,0.680969,5.428507
-0.1193196414338442,0.5783367545116033,0.5510150648816521,0.0011380690750633,0.0003518621381115,0.002377169714661,1.0576909926965845e-07,1.1260892795258166e-05,-8.872970696180133e-07,11952,-2.273943,0.757511,5.201794
-0.3741436907913407,0.5504375951474347,0.4700038139114518,0.0011121221996363,0.0005335561645701,0.0019680588800302,2.023797520943841e-09,1.2075329590338292e-05,-8.144467063397684e-07,11953,-2.349347,1.055096,5.00619
-0.5747580158746715,0.5434859795858309,0.3045179598190429,0.0011272327318141,0.0006263432866915,0.0016991531060962,-1.4867546705881394e-07,1.1979461166015216e-05,-6.108178210975571e-07,11954,-2.391899,1.091813,4.966448
-0.7465659365255635,0.5157556917855287,-0.0040025537243573,0.0011732815208535,0.0006322833556546,0.0015483626667424,-3.416996649948131e-07,1.1609537729910414e-05,-3.2916867945838305e-07,11955,-2.552998,1.275738,5.052419
-0.8146213094555399,0.4825227500391437,-0.2250860625667817,0.0012340783238826,0.0005612895336233,0.0014865860298703,-4.524820527857503e-07,1.1159010024477812e-05,-1.5603261321427417e-07,11956,-2.668129,1.386544,5.162442
-0.7736296828787939,0.4541948339518514,-0.2737783266439959,0.0012796547363514,0.0004467496022647,0.0014358232473704,-4.869551650656402e-07,1.1435306857618706e-05,-1.3185322007525693e-07,11957,-2.722897,1.509197,5.252459
-0.7191848176338296,0.4123034160553275,-0.3569875967213434,0.0012996506182627,0.0003060556845497,0.0013648352953535,-5.658164124494289e-07,1.2928773356464482e-05,-1.2493406419919985e-07,11958,-2.718044,1.554024,5.27365
-0.6730776130915199,0.3592820668699031,-0.5177156370867599,0.0013053344381473,0.0001403151168299,0.0012958366176402,-6.397851028604478e-07,1.4345493479677104e-05,-1.248261065303299e-07,11959,-2.715017,1.553778,5.269436
-0.6120682327044356,0.3248643322621729,-0.6400189307061803,0.0013078500009697,-3.17148578171911e-05,0.0012236751622532,-5.602880524635409e-07,1.4243640819871318e-05,-2.3813726108709802e-07,11960,-2.748591,1.514807,5.199692
-0.4981163280775076,0.3210912714454212,-0.7218758030787868,0.001328652907471,-0.0001807716824179,0.0011396200247651,-4.022638249533137e-07,1.3157507150455432e-05,-3.929183266243602e-07,11961,-2.860561,1.484618,5.016357
-0.2765115073385882,0.3250142981266941,-0.7741506624441417,0.0013756945745183,-0.0002931637705911,0.0010314365066307,-3.8135527867856666e-07,1.2832636616853358e-05,-4.1368373330497117e-07,11962,-2.998608,1.419031,4.829881
-0.0201366781318122,0.3044447540911152,-0.7562105219496036,0.0014405791383852,-0.0003681289263827,0.0008732598468278,-5.202503114793193e-07,1.4296147414400246e-05,-3.352088011385308e-07,11963,-3.122769,1.25898,4.721799
0.1127325907419687,0.249310995557295,-0.6853346404990226,0.0015178454784248,-0.0004101167544524,0.0006404492834984,-6.680500563968122e-07,1.703352565735289e-05,-3.154394093280012e-07,11964,-3.336569,1.207864,4.646705
0.1012500528293256,0.1859639434962194,-0.6485585481576175,0.0015975577371153,-0.0004362783553673,0.0003052257110187,-7.381146359429046e-07,1.931814049309365e-05,-3.571695261457475e-07,11965,-3.501253,1.060179,4.714259
0.0949291786552355,0.134083266210741,-0.6541553159081419,0.0016756763293297,-0.0004524960453566,-0.0001301059829164,-7.341145432406036e-07,1.9565499010833563e-05,-3.653204723696582e-07,11966,-3.549546,0.762369,4.85353
0.1862079490403466,0.0816689043617364,-0.4706041346282729,0.001756390843191,-0.0004531418621739,-0.0006258168662056,-6.470589010076951e-07,1.7582589221822902e-05,-3.427352682231181e-07,11967,-3.486733,0.460823,4.781642
0.2908579719027827,-0.0145412739993155,0.0610400340171776,0.0018415472597209,-0.000439241494239,-0.0011189868215459,-4.871373945781329e-07,1.4387126777824503e-05,-3.355505212092142e-07,11968,-2.972292,0.270326,4.53418
0.3265879245815632,-0.2016633489609051,0.6155709429161059,0.0019341368050521,-0.0004131444582964,-0.0015050124370685,-3.5879326647544186e-07,1.1327886515944552e-05,-2.975295496665332e-07,11969,-2.544666,1.019691,4.461674
0.3200965790715171,-0.4252058489816425,0.804270806294425,0.0020355091811508,-0.0003752164371262,-0.0017381132522507,-3.592998062142771e-07,9.042747511530782e-06,-1.5136343478856548e-07,11970,-2.063159,1.078274,4.697142
0.3107477219935346,-0.5566088723430394,0.7355698434062417,0.0021441145507109,-0.0003256320175121,-0.0018360015089365,-4.414052977422537e-07,7.108895820516434e-06,7.614636065412259e-08,11971,-1.741606,0.697258,4.48503
0.2889992978047078,-0.5799264098785202,0.6727401136193318,0.0022595263564788,-0.0002623285295981,-0.0018171052623866,-4.7049377295946746e-07,4.867179189411001e-06,2.670603024909924e-07,11972,-1.488391,0.784191,3.875954
0.2380162118340417,-0.5684419216253906,0.6009794221882564,0.0023813199043403,-0.0001803445421704,-0.0017316325253307,-3.5953447172047575e-07,1.7851969289251158e-06,3.363028920657088e-07,11973,-0.948105,0.956938,3.534591
0.1552123056582849,-0.5131399228421933,0.4475840919282143,0.0025093611538392,-7.835883569175652e-05,-0.0016076834966673,-1.0237603721186445e-07,-2.214812977185022e-06,2.647221400017077e-07,11974,-0.332577,1.184375,3.797254
0.0719706696137402,-0.4352010729878798,0.2802066089219888,0.0026443209380541,4.1475768888740456e-05,-0.0014469673839709,2.3433593871437237e-07,-6.1081305942729545e-06,7.76008578520847e-08,11975,0.089112,0.978456,4.14034
0.047765812225738,-0.4624267957965619,0.1901560861896133,0.0027866835572111,0.0001770859621645,-0.0012784889819448,5.169061265329938e-07,-8.483560244202558e-06,-1.2914124406669444e-07,11976,0.117051,0.941104,4.292333
0.0242011951993191,-0.5735131231791556,0.1694151464401827,0.0029370305513937,0.000324723900973,-0.0011477185739891,6.353235432442437e-07,-8.951061213521795e-06,-2.415856442240062e-07,11977,0.167465,1.003771,4.492787
-0.1191386250225641,-0.6165301890813354,0.1366356267528194,0.0030951992731391,0.0004811380885557,-0.0010734060718727,5.88436899454973e-07,-8.632196297494584e-06,-1.944276106447189e-07,11978,0.29264,1.204088,4.655726
-0.3126565147351675,-0.5750960522636198,0.0639920966306498,0.0032600353663165,0.0006436877232845,-0.0010514092423952,4.361902834206543e-07,-8.915978458200837e-06,2.881231644532608e-08,11979,0.425591,1.453992,4.697404
-0.4062649421285429,-0.5260496114558615,-0.0529681217046881,0.0034299160974277,0.0008076608192196,-0.0010671234346868,2.413598902472948e-07,-9.81048602829966e-06,3.5187770155062814e-07,11980,0.473529,1.713555,4.621086
-0.4109231938201647,-0.4938333829685773,-0.241823028991657,0.0036022802197501,0.0009664483095037,-0.0010824252351813,7.753947780457578e-08,-1.0732273871525417e-05,6.327415300668234e-07,11981,0.475368,1.940037,4.532632
-0.4032031268401934,-0.4753069167736026,-0.4306872750381521,0.0037738778406567,0.0011103419693446,-0.0010713190662157,1.0238708633806421e-08,-1.1884305721464798e-05,7.932336527332569e-07,11982,0.522186,2.090137,4.568119
-0.3804199722929787,-0.4612350026447349,-0.5089160851386049,0.0039404906174166,0.0012252173820948,-0.0010184812840315,2.8539035389528214e-08,-1.3449741120702893e-05,8.687175204177048e-07,11983,0.623309,2.267514,4.651439
-0.3268772728013876,-0.4394770892258259,-0.5133521570255369,0.0040959688873057,0.001291852835231,-0.0008882320511789,5.646630535308349e-08,-1.5205718589053198e-05,9.517235792957912e-07,11984,0.805667,2.464655,4.737505
-0.244946793170122,-0.4362572018254797,-0.5253834710712876,0.004231714670446,0.0012837627292328,-0.0006291276859429,7.32903931190619e-08,-1.7543090923402262e-05,1.0868630791725397e-06,11985,1.062468,2.71482,4.862957
-0.1150336225991363,-0.4429969099470938,-0.5262336194241104,0.0043428253608997,0.001188912962441,-0.0002192817490901,1.2021993165196974e-07,-2.0807812627119e-05,1.2330266221174668e-06,11986,1.303775,3.124842,5.063344
0.0342320258962475,-0.4106992185180047,-0.4931062731956664,0.0044282304112725,0.001011075323856,0.0003342029065135,1.992566491445667e-07,-2.399648468865342e-05,1.3273424008459403e-06,11987,1.509575,3.366137,5.183732
0.1260784749581873,-0.33778148972956,-0.4532127373799802,0.0044873550157127,0.0007585762435521,0.0010127351439043,3.097633807852161e-07,-2.5871422078052847e-05,1.2997549000459917e-06,11988,1.591394,3.826367,5.328139
0.1470476970071422,-0.2302170044153774,-0.4210708793426472,0.0045220584382685,0.0004522198830929,0.0017707837909695,4.944142079686591e-07,-2.6279087191191665e-05,1.082290704165761e-06,11989,1.734328,3.949813,5.467057
0.136931723208964,-0.1656204418031467,-0.3194786211287651,0.0045326532576149,0.0001134074761026,0.0025683838019665,7.314928043317692e-07,-2.5207516990060304e-05,6.990909374497498e-07,11990,1.773462,3.706028,5.660212
0.1329328449987132,-0.1567214405813577,0.0087688927006248,0.004517768289014,-0.000234262519468,0.00336823999365,9.06543549474406e-07,-2.212588502080916e-05,2.737474887549459e-07,11991,1.644007,3.632747,6.618369
0.1983541975501773,0.0987909577856081,0.5174824879877308,0.00447809823216,-0.000549179764836,0.004101432548407,9.461956008486854e-07,-1.7323111111163805e-05,-7.6875050057249e-08,11992,1.154711,2.928657,6.825939
0.3737207022895543,0.6799691422272323,0.8882554516636817,0.0044156992764482,-0.0007700772536146,0.0046677850277131,8.817413018510766e-07,-1.2161982927496051e-05,-3.222844287656752e-07,11993,0.329501,2.927811,6.504224
0.5398890154740275,1.091224936890293,0.9559985893439812,0.0043332351245086,-0.0008677244688227,0.0050181892747637,7.736297806881067e-07,-7.245076325139886e-06,-5.119250005019185e-07,11994,0.035829,2.252109,6.504967
0.5318221738486594,1.0713780329682074,0.873587642459517,0.0042347866389189,-0.0008456385102499,0.0051548101074356,6.524063450948208e-07,-2.1648202354906708e-06,-6.956279036396562e-07,11995,-0.543839,2.449405,7.002444
0.3683350113841439,0.9460503490325086,0.810853207838421,0.0041263403879435,-0.0007144913982671,0.0050923323495656,5.494532045253174e-07,2.7457205148849897e-06,-8.787744501755105e-07,11996,-0.973923,1.75265,7.320826
0.1632199342681818,0.8947692420177101,0.7592979169598366,0.0040164004423574,-0.0005089273025955,0.0048845934591571,5.092310924845165e-07,6.156531870267208e-06,-1.0456667835746552e-06,11997,-1.492293,1.462826,7.057081
-0.0018304984056092,0.7938786543092435,0.6207617562780064,0.0039115844474004,-0.0002536336516833,0.0045680122255837,5.065471918723144e-07,7.645891244715878e-06,-1.1485045022642043e-06,11998,-1.625006,1.110851,6.704872
-0.0549115221163489,0.6700107220126534,0.3886688911741248,0.0038167996235513,3.617265526065954e-05,0.0041625006735152,4.3172292613285307e-07,8.349414885308941e-06,-1.1072197871063798e-06,11999,-1.799004,1.348498,6.310613
-0.0703858724847343,0.603130961228787,0.1722402454300834,0.0037383171681459,0.0003207522373798,0.0037265882302869,2.3013731555067425e-07,9.081095999016011e-06,-8.959560073296306e-07,12000,-1.887073,1.256367,6.05929
-0.2381092078189892,0.5628170470545542,0.0217155244935715,0.0036829137963553,0.0005394307994078,0.003350951304144,-4.1948336677253525e-08,9.670458003556353e-06,-5.879694348958926e-07,12001,-2.056384,1.311526,5.93993
-0.4969486122173701,0.5199587379790211,-0.0875457545218062,0.0036546130104341,0.0006632830198564,0.0030770465300005,-3.113599983889999e-07,1.0177343187951098e-05,-2.868207492458363e-07,12002,-2.261639,1.448779,5.884963
-0.602139960734222,0.4607987186645574,-0.1610498118010244,0.003654537980902,0.0006935753011256,0.0028997101923527,-5.351864278708331e-07,1.0919238896229017e-05,-5.873615804740652e-08,12003,-2.398325,1.541208,5.86675
-0.5423146340968783,0.3984842515732353,-0.2777250345357387,0.0036814419635512,0.0006388645237407,0.0028018105561179,-6.897036313089094e-07,1.1784289344124004e-05,7.9308022210264e-08,12004,-2.506633,1.71825,5.806052
-0.4779190886334786,0.3543465633366161,-0.4783866038656633,0.0037301398559664,0.0005310864024564,0.0027293177721814,-7.803768616281357e-07,1.2390873930435362e-05,1.5465582059407168e-07,12005,-2.540924,1.753932,5.732251
-0.4592498598905981,0.3213537027767504,-0.6327938561718245,0.0037981761897395,0.0003858924592974,0.0026531212634437,-8.494723766776755e-07,1.2665681394666395e-05,2.2063976726881893e-07,12006,-2.612503,1.815917,5.633168
-0.4139735789019448,0.2923461856611463,-0.7294726720902365,0.003885587971747,0.0002020882546898,0.0025695983581129,-9.495597442186434e-07,1.3019272919756996e-05,3.211681135351633e-07,12007,-2.69729,1.818182,5.497995
-0.2544417887906709,0.268016542396821,-0.8627663784832814,0.0039898593348955,-4.071134297898129e-06,0.002447011467301,-1.0950904503266534e-06,1.3831327850515354e-05,4.5615934143254253e-07,12008,-2.819644,1.816702,5.335595
-0.0222537736979804,0.2454548656833962,-0.9686217748721924,0.0041071061216395,-0.0002062569422482,0.0022366419390732,-1.2430360291125223e-06,1.5138974439114867e-05,5.655917231452875e-07,12009,-2.948912,1.752027,5.219554
0.1223789402220542,0.2133588580562254,-0.9604855025321146,0.0042349863289978,-0.0003884551358211,0.0019187627155096,-1.327178913439894e-06,1.702239281159868e-05,5.535389565309905e-07,12010,-3.115687,1.658208,5.154556
0.1461170416076328,0.1747782113458381,-0.8659311295720775,0.0043722074987279,-0.0005413047356869,0.0014992727879748,-1.3055583296550482e-06,1.952813637292787e-05,3.642772532672397e-07,12011,-3.247891,1.478052,5.163602
0.168256573317021,0.1447849306908174,-0.8129463078924886,0.0045177856800624,-0.0006562297977083,0.0009960100630619,-1.1961031446656203e-06,2.2081008064126475e-05,6.379715215577036e-08,12012,-3.378022,1.328043,5.134017
0.242916760525713,0.1109099401391668,-0.8211720421648805,0.0046717288536591,-0.00072977608225,0.0004532032259985,-1.0535512380169363e-06,2.360054615850359e-05,-2.0754339756240373e-07,12013,-3.404917,1.016091,5.153449
0.3100195977141639,0.0697241651454842,-0.5441231267476194,0.0048316474675881,-0.0007585198136568,-9.726814599051563e-05,-8.718176367322704e-07,2.2989750198611355e-05,-3.9503690000175293e-07,12014,-3.281938,0.500338,4.981551
0.3438263531199079,0.0516885643068072,0.1788618332917172,0.0049924287761955,-0.0007397199308031,-0.0006339755527875,-5.985851708495398e-07,1.9819490662725207e-05,-5.41159774303568e-07,12015,-2.705836,0.111418,4.750126
0.4507802996609477,-0.0017163671782323,0.8032505127206284,0.0051480673767813,-0.0006781069200014,-0.0011114458335277,-2.6874392099736016e-07,1.4863697902232283e-05,-6.423872805963339e-07,12016,-1.995431,0.507052,4.697805
0.6632760630572861,-0.2163216578685894,0.8973547280107009,0.0052903404612129,-0.0005865567493847,-0.0014645539900317,7.4521980665175e-09,9.28806689732575e-06,-6.296500711113214e-07,12017,-1.390977,0.853827,5.013202
0.7808001798506022,-0.5375909170703465,0.7618679776303344,0.0054146456755947,-0.000469408202403,-0.0016616455477527,1.6532807269563566e-07,3.935385055466793e-06,-4.790178528529232e-07,12018,-0.879601,0.412786,4.964147
0.7402388092476156,-0.762518862972854,0.7023890001982036,0.0055204668241935,-0.0003231901923233,-0.0017035850040479,2.215854894075072e-07,-5.495429692680454e-07,-2.510946795039192e-07,12019,-0.656294,0.549395,4.324007
0.6779093464923703,-0.7968758960509646,0.6608579270962006,0.005607696186994,-0.0001460805294797,-0.0016018604628237,2.3640905776171905e-07,-3.789138265963533e-06,-4.562790635708854e-08,12020,-0.052996,0.54818,3.92588
0.5162623540434601,-0.6821803271322335,0.6126862443979151,0.0056786150292153,6.613525703226997e-05,-0.0013958853479997,2.7050488238243826e-07,-5.607343278664877e-06,4.1999603923298055e-08,12021,0.458395,0.904299,4.041574
0.2489343522888912,-0.528544547611469,0.5241712801822579,0.0057349267108528,0.0003063710580164,-0.0011138591217741,3.756126350208063e-07,-6.420269318947888e-06,-3.441088600819313e-08,12022,0.811923,0.897262,4.366429
0.097515615826784,-0.4567024264157487,0.3150142290243537,0.0057777584772863,0.0005535133032886,-0.0007742961763375,5.769722851783598e-07,-7.270736457152315e-06,-2.438347720407566e-07,12023,0.715269,1.076192,4.515642
-0.0541424274049851,-0.4714784709294556,0.0752040209793452,0.0058112017894546,0.0007798747991084,-0.0004237571496641,8.175843359877689e-07,-8.533257596982396e-06,-4.858990860171111e-07,12024,0.660353,1.192849,4.725069
-0.381719031832935,-0.4866282254817917,-0.0748606525131758,0.0058421727961389,0.0009444746084682,-0.0001331106044533,9.65325450116128e-07,-9.774114394732089e-06,-6.086801574738507e-07,12025,0.655845,1.573194,4.95355
-0.6085485870088767,-0.4697240067351702,-0.1346953220719238,0.0058738619168692,0.0010288218345956,6.55534664567261e-05,9.139970331804308e-07,-1.0607444302321409e-05,-4.911207391386794e-07,12026,0.746711,1.777801,5.100743
-0.5610990878037063,-0.4321645882769009,-0.1657055227254186,0.0059059490212749,0.0010395104667094,0.0001777119182299,6.953641521069255e-07,-1.107499130592335e-05,-1.690176702912278e-07,12027,0.757093,2.043484,5.13057
-0.4740566435030289,-0.3785279334839322,-0.2453954815976503,0.0059377805380079,0.0009866986280931,0.0002189313962961,4.639078006963852e-07,-1.176781721001429e-05,1.8988381634822335e-07,12028,0.779232,2.203395,5.095994
-0.476675291988867,-0.3314082619276805,-0.3814856220908662,0.0059665168469441,0.0008963903670483,0.0002347657747279,3.127389227647969e-07,-1.2924305766733244e-05,4.742309358548308e-07,12029,0.859793,2.305139,5.086619
-0.4652941098610523,-0.3073302033391378,-0.4832706979053039,0.0059921158600742,0.0007818849971892,0.0002543897983359,2.224893909693408e-07,-1.4308040242651306e-05,6.92667537114341e-07,12030,1.002431,2.447899,5.040872
-0.3824055793359763,-0.30004031904629,-0.5070340681310164,0.0060177478173087,0.0006423036295945,0.0002909597906659,2.0155117259972018e-07,-1.650558911412006e-05,8.664912595315876e-07,12031,1.219406,2.610253,4.982925
-0.2405957564570756,-0.3031804333009135,-0.5045317452949395,0.0060460437013449,0.0004876223609603,0.0003840796699995,2.412282006529062e-07,-1.982712408917219e-05,1.0251314091745617e-06,12032,1.442656,2.853588,4.91329
-0.1102150798671244,-0.300602440571579,-0.4912946367057362,0.0060805750923737,0.0003324297903113,0.0005930869418253,2.260918150668209e-07,-2.278010299175557e-05,1.2348394344766836e-06,12033,1.673136,3.124696,4.881674
-0.075457336981294,-0.2746953928544878,-0.4542503972065868,0.0061233653683167,0.0001849524443131,0.0009431101572634,1.0200239052786645e-07,-2.406635454386172e-05,1.4880197856234862e-06,12034,1.786435,3.368476,4.737674
-0.0370953318606422,-0.2452125965498858,-0.4279881528879791,0.0061743701317514,4.939179428670344e-05,0.0014267654101052,-3.677112614784805e-08,-2.420177046528621e-05,1.685053440996655e-06,12035,1.813454,3.696631,4.543747
0.1814204259754563,-0.2262385503052921,-0.3736904363368338,0.0062336972986681,-7.309568380326433e-05,0.0020245337769188,-1.3768429933867257e-07,-2.377626412628596e-05,1.791897007734956e-06,12036,1.882144,3.736622,4.34525
0.4958677042285694,-0.1699827670018059,-0.1531519999157505,0.0063006921442209,-0.0001871850878866,0.0026872168919252,-2.9000724444349385e-07,-2.1924043327230023e-05,1.8770875581738943e-06,12037,1.873883,3.630135,4.290041
0.6368791740164809,-0.0833405031868832,0.208618584150027,0.0063745835166654,-0.0002910842183845,0.0033764246633763,-5.415159688161386e-07,-1.802795545405532e-05,1.959984395051121e-06,12038,1.634616,3.510499,4.625524
0.567748497119823,0.0009561013479782,0.4676696359829928,0.0064545432897598,-0.0003764686826451,0.0040624076051507,-7.765760765012579e-07,-1.3397105062373918e-05,1.958597434210134e-06,12039,1.106648,3.170366,4.595677
0.5074340286058998,0.1969169243686932,0.5095557609697192,0.0065383928607303,-0.0004365638295971,0.0046848928605277,-8.986077883293622e-07,-9.046641857464518e-06,1.8156288444151705e-06,12040,0.549904,2.89815,4.408332
0.5306878486596167,0.5250827267693788,0.48643232255493,0.0066224957721284,-0.0004629995843955,0.0051563153982711,-9.46836668508599e-07,-4.322691149938324e-06,1.5595565104216785e-06,12041,0.200642,2.409574,4.267863
0.5049725429255663,0.7471664227111816,0.500936503384771,0.0067050411443146,-0.0004513058999605,0.0054340030258211,-9.59643897799817e-07,6.995996693497096e-07,1.2456247824154566e-06,12042,-0.289185,2.730486,4.60658
0.3724032061389598,0.7627940189124788,0.4831882744640233,0.0067859673969763,-0.0004022179904862,0.0055194383572411,-9.404218953606116e-07,5.008275003597813e-06,9.303248219734304e-07,12043,-0.704374,2.466371,5.122133
0.1666748786079573,0.7334993032015755,0.4034198996626893,0.0068652329417567,-0.0003172494954313,0.0054263621196002,-9.530744578853994e-07,8.776671412247367e-06,6.869372880839802e-07,12044,-1.245691,2.174525,5.356444
-0.0858664884968439,0.722191139936299,0.3062457410073256,0.0069437233797047,-0.0002010442054499,0.0052040106460264,-1.067375620523196e-06,1.2599905807590489e-05,5.788858308377479e-07,12045,-1.634929,1.721359,5.19337
-0.3344998745549195,0.6745051504223456,0.221495506326448,0.0070208651891732,-6.098760610041262e-05,0.0048854900930968,-1.2295695975440088e-06,1.5639761311576928e-05,5.900863263740214e-07,12046,-1.743926,1.618895,4.974528
-0.5385515849853859,0.6216037914861028,0.1673937783311407,0.00709435448008,9.20702249092598e-05,0.0044889019590571,-1.3117596151463728e-06,1.6820967460935936e-05,6.154346030348554e-07,12047,-1.821513,1.691998,4.875973
-0.6616410264034468,0.5874552478327918,0.135229310307682,0.0071619000862579,0.0002401267125729,0.0040666721089967,-1.2906375421246968e-06,1.6907456719106947e-05,5.798537135846658e-07,12048,-1.837261,1.44821,4.963167
-0.6311255935955934,0.547432304206082,0.0853061894944821,0.0072204227297855,0.0003561057376946,0.0036995686109179,-1.2847241626815089e-06,1.7500572233004425e-05,5.450467305563186e-07,12049,-2.042384,1.460471,5.023725
-0.4687282217327727,0.5046727275331336,0.0202197782454635,0.0072681440027439,0.0004264129082417,0.0034247231270795,-1.3959773720020718e-06,1.8994584300198277e-05,6.128305551869812e-07,12050,-2.215814,1.489925,5.08764
-0.338742276762585,0.4599327297304882,-0.0416679705085822,0.0073048733606917,0.0004513775704994,0.0032379417297719,-1.5894613042672186e-06,2.0945076827215244e-05,7.498473884365788e-07,12051,-2.356767,1.591528,5.102302
-0.3162971699138361,0.4163275110827437,-0.1534620644963776,0.0073304540235515,0.0004329775896549,0.0031241692171505,-1.781253911233788e-06,2.316241093388956e-05,8.545887755484724e-07,12052,-2.427208,1.614686,5.076818
-0.3160477280055719,0.3820713054726122,-0.3316859641593279,0.0073455010018114,0.0003818842966299,0.0030353719603851,-1.944549961811899e-06,2.54154198945178e-05,9.174507691479594e-07,12053,-2.477008,1.652787,5.042587
-0.3121964768574044,0.3478182149693158,-0.4946625633070865,0.0073505380499554,0.0003028870415953,0.0029454465671378,-2.0575246871543443e-06,2.717544191032289e-05,9.500112389041792e-07,12054,-2.546105,1.617527,4.983722
-0.3214465942770267,0.3066546918655334,-0.5916200469888174,0.007345975180196,0.0001942947081871,0.0028506059394231,-2.1035300487153244e-06,2.8412283433903065e-05,9.28518515494934e-07,12055,-2.685808,1.588265,4.880365
-0.292040039549061,0.2614591968290986,-0.6222251249528776,0.0073333124610125,6.149320109272036e-05,0.0027216650720396,-2.139511260838311e-06,2.983362924487541e-05,8.786281954387565e-07,12056,-2.877202,1.557213,4.737938
-0.2069808178143286,0.2172226142387093,-0.5992433129281608,0.0073151421335321,-8.579400927603983e-05,0.0025137743285724,-2.2148684422614416e-06,3.189121679564686e-05,8.365784188912796e-07,12057,-3.070388,1.524853,4.606407
-0.1088859883082769,0.1652707337999389,-0.5533083196721847,0.0072928840953569,-0.0002384920754532,0.00220890290097,-2.2721097618218053e-06,3.4226260637086594e-05,7.527898187615831e-07,12058,-3.239803,1.595889,4.53456
-0.0536924967957121,0.1129284998815224,-0.5005277069379734,0.0072669067659482,-0.0003859462052953,0.0018129350680835,-2.2318747941573787e-06,3.616326135396822e-05,5.715146290760288e-07,12059,-3.380165,1.675057,4.511945
-0.0342848445247716,0.0836848895388748,-0.4741740729750677,0.007237724183714,-0.0005140826600794,0.0013426441788287,-2.1275651791163533e-06,3.70667430993685e-05,3.836221951148673e-07,12060,-3.490392,1.545049,4.48244
0.0365155520396227,0.0509202905184838,-0.4587649878189485,0.0072054394823898,-0.0006049918662375,0.0008391085729418,-2.0271104478732384e-06,3.653763342290646e-05,3.0472244345503204e-07,12061,-3.506531,1.036649,4.205695
0.1431383879510658,0.02840897597567,-0.2238362609387011,0.0071715878289225,-0.0006501695825398,0.0003323387479489,-1.8907977997722231e-06,3.498429230643485e-05,2.500376068151475e-07,12062,-3.329557,0.667047,3.864452
0.2175928752422322,0.0382867043361557,0.3427656322872764,0.0071394566068671,-0.0006515007363157,-0.0001569631798282,-1.6912128426062937e-06,3.3315688807082155e-05,1.1938479479603264e-07,12063,-2.624884,0.20621,3.459813
0.3190218132297988,-0.103006257827867,0.8550930642029182,0.0071130234174407,-0.0006151957050502,-0.0005856135065875,-1.5261661207070989e-06,3.167368944730487e-05,2.621820194268537e-08,12064,-2.13123,0.975643,3.364006
0.453328539733857,-0.5096589090333614,0.9563500213347288,0.0070977922624323,-0.0005570795564579,-0.0008918212372931,-1.4492269048581556e-06,2.944193503560361e-05,7.51156658507085e-08,12065,-1.412685,0.598141,3.397577
0.5064823122660977,-0.9303948670932188,0.8396806400697883,0.0070954667799675,-0.0004822914569961,-0.0010462961836785,-1.3646827004568963e-06,2.64502087308294e-05,1.569392280108547e-07,12066,-1.119942,0.555848,2.732573
0.4714126944894013,-1.1172540533527853,0.7807230118763476,0.0071033829474643,-0.0003845377173202,-0.0010516028738163,-1.1889134059273213e-06,2.324016241608337e-05,1.371888810323753e-07,12067,-0.632151,0.626454,1.923356
0.3864196733369532,-1.0514076056397854,0.7015173535052672,0.0071173254179852,-0.0002604779373672,-0.0009210409342198,-9.71215685394168e-07,2.0421144146933444e-05,4.1687814702283384e-08,12068,0.045342,0.80782,1.487716
0.2346722465200184,-0.792512164807715,0.478829776905323,0.0071293728232445,-0.0001042887956193,-0.0006955362212396,-7.639220348555458e-07,1.840321348462201e-05,-8.996450537249285e-08,12069,0.703156,0.652412,1.594561
0.1080448051658012,-0.5330308990567663,0.2049252215182569,0.0071301808472736,7.966935311359217e-05,-0.000406752133134,-5.095245177427262e-07,1.7369970559673695e-05,-3.429127045034217e-07,12070,0.711144,0.695803,1.607683
0.0856998709450094,-0.4749263973949906,0.0319671564556258,0.007108207352709,0.0002738052596333,-7.901672848765985e-05,-1.775837904221619e-07,1.708601680881939e-05,-7.419439426605169e-07,12071,0.589848,0.516702,1.578445
0.0467649425047866,-0.5278327897541559,-0.0139084214289477,0.0070454397486093,0.0004556747977108,0.000233922542136,1.447971862296572e-07,1.701374016078289e-05,-1.1414335870470003e-06,12072,0.553951,0.692123,1.723184
-0.0817737199826217,-0.5092513321533176,-0.0180880599299321,0.0069161473439801,0.0005918059952095,0.0004514871337879,4.0916927405909433e-07,1.668549285909185e-05,-1.4502881837095071e-06,12073,0.740469,0.775014,1.824557
-0.2115650595104534,-0.4000308736300786,-0.043652148036403,0.0067069417853567,0.0006657872032495,0.0005363270026675,6.968596857052202e-07,1.5858899556780867e-05,-1.7624488746185004e-06,12074,0.862635,0.9935,1.777068
-0.2929776481838181,-0.2462309257820675,-0.1196938870057983,0.006417215554563,0.0006803456348988,0.0004935895560872,1.0702866979013403e-06,1.465603700473168e-05,-2.1676297523014477e-06,12075,0.876246,1.292033,1.538418
-0.3436804862835451,-0.121484224379893,-0.2491442491664639,0.00604872545882,0.0006393811228279,0.0003394138309173,1.452306821450149e-06,1.3433243386230391e-05,-2.5829900144598102e-06,12076,0.950542,1.467345,1.292102
-0.3623384537348405,-0.0831116194161355,-0.3553573336479935,0.0056120955432962,0.0005572444240347,0.0001232583649625,1.754593568791845e-06,1.206506088247472e-05,-2.882151775263198e-06,12077,1.078652,1.64372,1.078199
-0.3496215197790154,-0.0820480959937683,-0.4056619711225799,0.0051139384812598,0.0004430217099696,-0.0001221817347912,2.011226154664708e-06,9.863303671847752e-06,-3.0649887171260355e-06,12078,1.317991,1.737064,0.859338
-0.3252474466450993,-0.0722203286337784,-0.4826359577913361,0.0045568650302268,0.0002997979344744,-0.0003804067417826,2.272579092659433e-06,6.437608921546635e-06,-3.170154146961224e-06,12079,1.570839,1.958212,0.54084
-0.2965270051824378,-0.0654291234308601,-0.5876029784693513,0.0039523532170603,0.0001412497255991,-0.0006040594621173,2.522454388567662e-06,2.0326379727342208e-06,-3.1967837971179307e-06,12080,1.851439,2.243524,0.141518
-0.2598399453982655,-0.0584361911145036,-0.6136195568055448,0.0033191994791385,-1.0655027903659024e-05,-0.0007215525475284,2.777827835707185e-06,-3.0469033691382957e-06,-3.199790678284686e-06,12081,2.085742,2.544223,-0.38566
-0.1881864927171864,-0.0474188217693735,-0.5571868172513224,0.0026652320548893,-0.0001431681826835,-0.000701175615825,3.141895729906481e-06,-8.964323785703033e-06,-3.307904592853464e-06,12082,2.328003,2.805975,-0.855982
-0.0439269838671327,-0.0318595033168206,-0.524020003915787,0.001987989629999,-0.0002511111783644,-0.0005491184963735,3.673718157854103e-06,-1.5563954801923733e-05,-3.598032049559393e-06,12083,2.505877,2.99733,-1.45441
0.1345417790365467,-0.0224245867507909,-0.5383471868748051,0.0012824747866052,-0.0003293489076126,-0.0002838659980205,4.256814730176271e-06,-2.12786914244412e-05,-4.011181752222518e-06,12084,2.735881,2.958076,-2.02542
0.2320508550124024,-0.0205693747606652,-0.4473456195641291,0.0005356328256113,-0.0003770421683459,4.3442216159158805e-05,4.742407916303332e-06,-2.449125522178036e-05,-4.459342251612679e-06,12085,2.988965,2.954753,-2.699728
0.2222193511217327,0.033801918873506,-0.1027439449159666,-0.0002596336698127,-0.0003945697124578,0.000397253769574,5.135528168442822e-06,-2.5500432280606272e-05,-4.927531312623259e-06,12086,3.203673,2.740596,-3.135833
0.2323642354821586,0.1104399045457111,0.3523216393868649,-0.0011042205789786,-0.0003839913898579,0.0007562898288792,5.493576839578641e-06,-2.555925980410333e-05,-5.405602347750888e-06,12087,2.67,2.615571,-4.075997
0.3189640282347186,0.1001512428662633,0.6575070780639926,-0.002004693873867,-0.0003550332864063,0.0010688317325543,5.796238877520386e-06,-2.5139340153102555e-05,-5.848441698135587e-06,12088,2.027992,2.530086,-5.676239
0.3804749731820347,0.1281244513566478,0.8150186490996322,-0.0029705449737338,-0.0003262764382742,0.0012585715596922,6.012475625746797e-06,-2.4584041045588187e-05,-6.2085174592642335e-06,12089,1.849976,2.276685,-6.908583
0.3625406092107652,0.3925539074410286,0.9402949980101608,-0.0040044858814584,-0.0003047225337998,0.001290111290928,6.192213362724686e-06,-2.510149435265193e-05,-6.466262946496767e-06,12090,1.566588,2.596458,-7.288855
0.2994972020991565,0.716917338744629,0.9783767646757614,-0.0051029476632759,-0.0002859647199949,0.0011673846925306,6.4024067573667066e-06,-2.7549402004242825e-05,-6.635623507270354e-06,12091,1.099387,2.331433,-8.027323
0.1988042581910919,0.8014763380234484,0.8673463766605958,-0.0062583013292233,-0.0002653036822266,0.0009068764857893,6.62151799655357e-06,-3.147950180991921e-05,-6.714375760202788e-06,12092,0.498497,2.350069,-9.58898
0.0605390558592941,0.7159742433854305,0.7241988396426589,-0.0074553424787513,-0.0002319170285999,0.0005586297545371,6.798372867615643e-06,-3.638903555380398e-05,-6.675158906548546e-06,12093,0.34725,2.326264,-11.265135
-0.0790109135856419,0.6946581173318199,0.6466256700551435,-0.0086787470923569,-0.0001834424408832,0.0001511001124863,6.956336665071879e-06,-4.234218412139852e-05,-6.540835621508185e-06,12094,0.324931,2.601253,-12.779228
-0.1910551865438225,0.7439353069514318,0.5560174607334434,-0.0099116273777696,-0.0001275165724136,-0.000308687564861,7.151691057294275e-06,-4.894716911948787e-05,-6.405295107648607e-06,12095,0.312803,2.553545,-14.354889
-0.2367929799943685,0.729422085746396,0.3860243296149735,-0.0111269137034916,-7.062844752169539e-05,-0.0007876992920777,7.368257309089129e-06,-5.530201414555678e-05,-6.315715584033348e-06,12096,0.113646,2.607509,-16.07098
-0.1758127610029247,0.6165121759746586,0.2167581828092633,-0.0122863780577859,-2.2706075829351396e-05,-0.0012363071208747,7.502196199585458e-06,-6.090905141978839e-05,-6.178723112809812e-06,12097,-0.167874,2.752549,-17.901063
-0.0723183494639794,0.495286631449068,0.1279884412682112,-0.0133693385077264,1.142903560152243e-05,-0.0016308168728156,7.441393157088543e-06,-6.55386265506974e-05,-5.853045348397045e-06,12098,-0.383358,2.88822,-19.905816
-0.018947026003986,0.4318316764397392,0.0763675270139217,-0.0143729847648541,3.357769248909834e-05,-0.0019702436508817,7.161053467765625e-06,-6.890339214191062e-05,-5.30934655087415e-06,12099,-0.526384,2.966907,-22.018419
-0.0060143786118404,0.3976546232641665,0.0114749289709942,-0.0152979103882222,4.473587523333568e-05,-0.0022624575051514,6.73305534748229e-06,-7.120856971553838e-05,-4.632622693413116e-06,12100,-0.69813,3.076883,-24.211405
-0.0018951380004656,0.3728788190382405,-0.0325357970646745,-0.0161572882691775,4.804741822475982e-05,-0.0025369841818547,6.227419416358701e-06,-7.298483339899176e-05,-3.892701677817504e-06,12101,-0.905047,3.178027,-26.563528
-0.0016411514807266,0.3676850575695854,-0.0524905099671456,-0.0169574477264207,4.580699961680905e-05,-0.0028082750493712,5.670346000289494e-06,-7.432239342001908e-05,-3.1139380974608477e-06,12102,-1.076248,3.275147,-28.976809
0.0184790831050476,0.3603650344502078,-0.1083023819528474,-0.017697699232338,3.8932259310077655e-05,-0.0030760183890431,5.116337003326912e-06,-7.543942770416192e-05,-2.3462948564506807e-06,12103,-1.199702,3.400524,-31.40391
0.058828803940877,0.328379661814106,-0.2046663422245194,-0.0183888085466652,3.116148960376009e-05,-0.0033552621435393,4.665054915195317e-06,-7.728279029356577e-05,-1.665391726324929e-06,12104,-1.345827,3.620294,-33.918043
0.082234438931239,0.2693348186768451,-0.2747480484756129,-0.0190501178489118,2.8619768428471507e-05,-0.0036697881366875,4.342804681849528e-06,-8.025779407499757e-05,-1.0828491277340735e-06,12105,-1.453936,3.761194,-36.453377
0.0871319843813117,0.1923226284293744,-0.2727250899259544,-0.0196896858665782,3.373218647287678e-05,-0.0040288394206355,4.033115246478139e-06,-8.320502339015212e-05,-5.129746361989066e-07,12106,-1.588672,3.999315,-39.047826
0.0943065933519021,0.1092017956433025,-0.2416442327463087,-0.0203057630539886,4.543397464414294e-05,-0.0044291802848371,3.590296161481161e-06,-8.459331620039538e-05,1.420849589796361e-07,12107,-1.636588,4.139288,-41.701572
0.0953251828940484,0.0330323519463166,-0.2597228140473969,-0.0208947459471216,6.17093583985078e-05,-0.0048615137569537,2.939064870583218e-06,-8.400009244445141e-05,9.530236985734684e-07,12108,-1.615384,4.232721,-44.501113
0.0825861210015718,0.0067173652064556,-0.3180522621262929,-0.0214457349822526,7.77259202560806e-05,-0.005303318397732,2.057308684870219e-06,-8.18447476224301e-05,1.973206052497464e-06,12109,-1.600376,4.435669,-47.521793
0.0796521209809388,0.000264753427178,-0.3683257833286299,-0.0219575785960615,9.00994907133896e-05,-0.0057397680791485,9.983543684190078e-07,-7.851927848423579e-05,3.155400534004911e-06,12110,-1.690827,4.552997,-50.8404
0.1206731851908345,-0.1320146604261416,-0.4432150364521783,-0.0224400392700288,9.683654400818364e-05,-0.0061630240171623,-8.938229144162598e-08,-7.446785468483014e-05,4.331969045213803e-06,12111,-1.98134,4.958657,-54.167269
0.1947057361127184,-0.4312703419989009,-0.5634861766368986,-0.0229017663429762,9.338366334561812e-05,-0.006554671925978,-1.0736199139634232e-06,-7.042692004206585e-05,5.376548707788547e-06,12112,-2.035129,5.303857,-57.449871
0.2371020387893713,-0.7649742906403314,-0.6344593931442005,-0.0233554103004674,7.320266340657901e-05,-0.0068888137491263,-1.9170225218716124e-06,-6.693951154907441e-05,6.275212445778553e-06,12113,-1.995372,5.702898,-60.32547
0.2248655722706268,-1.001289159300872,-0.5931998646784294,-0.0238075305809246,3.270275289667357e-05,-0.007152253056634,-2.635518679688272e-06,-6.371032522409383e-05,7.027923541245963e-06,12114,-1.634835,5.089398,-63.206527
0.2090282601400374,-1.0976227694141725,-0.5301669891708779,-0.0242569144593389,-2.8996035920252576e-05,-0.0073436584140996,-3.298750613477935e-06,-5.978529223740496e-05,7.663921721291164e-06,12115,-1.757294,5.637163,-66.432052
0.1981782994014444,-1.0777561415185917,-0.5342930658496554,-0.0247030227119448,-0.0001120610703687,-0.0074661985025536,-4.0404747299646086e-06,-5.4411706854278666e-05,8.316595902050436e-06,12116,-1.675984,5.885628,-69.696432
0.1380030832847905,-1.0144118464294556,-0.5723297901010912,-0.025142491689258,-0.0002144750214877,-0.0075340108233009,-4.948750163485057e-06,-4.729074347575024e-05,9.088047628695892e-06,12117,-1.665595,6.205482,-72.932337
0.0444784664970458,-0.9577904475381168,-0.5793474599562631,-0.0255725046810105,-0.0003359876182205,-0.0075561504964378,-5.935841097177749e-06,-3.851639042525915e-05,9.863688017070874e-06,12118,-1.705353,6.205154,-76.208258
-0.0122452072704979,-0.9052415782931992,-0.5374230484888101,-0.0259912251957787,-0.000478199647408,-0.0075371986886079,-6.828377537024392e-06,-2.8599617452815705e-05,1.0443934407074973e-05,12119,-1.866362,6.247874,-79.61414
-0.0378825194623385,-0.8712991734099409,-0.481700374263412,-0.0263927197852012,-0.0006413295202099,-0.0074919727191838,-7.599830147031611e-06,-1.8097730839264845e-05,1.083703018978738e-05,12120,-2.066059,6.415012,-83.064548
-0.0737200114172486,-0.8303785660633347,-0.4407086029781101,-0.0267671512277479,-0.0008250455402956,-0.0074436852879089,-8.321551205010316e-06,-7.669143186081802e-06,1.1180044222294608e-05,12121,-2.153708,6.425128,-86.501634
-0.1004162914819421,-0.760664529417619,-0.4004260020665945,-0.0271091509100472,-0.0010267476773497,-0.0074035061178967,-8.950960310270944e-06,1.9220377943581108e-06,1.145002637104982e-05,12122,-2.221818,6.427564,-89.905167
-0.0948524413493614,-0.7472020365541437,-0.3636936762252403,-0.0274173526878227,-0.0012406486680146,-0.0073714286846161,-9.414138447325615e-06,1.0592061829514246e-05,1.154279792155655e-05,12123,-2.291117,6.402661,-93.233665
-0.085139931547917,-0.7964279619540526,-0.3363810009178208,-0.0276902264999046,-0.0014584508021169,-0.0073450648332019,-9.78010821427998e-06,1.924896036137034e-05,1.1498975061390749e-05,12124,-2.386348,6.329827,-96.507962
-0.0893493269510153,-0.8096243286151903,-0.2807105504615267,-0.0279282136772125,-0.001667833817835,-0.0073136262816953,-1.014271334059223e-05,2.903567643754859e-05,1.138412004590366e-05,12125,-2.551227,6.209965,-99.786603
-0.0818562424529278,-0.7525967926390484,-0.1691294805543957,-0.0281271202120536,-0.0018511674577644,-0.007274291488114,-1.0429423815238564e-05,4.003483234162793e-05,1.109881421356375e-05,12126,-2.685353,5.894623,-103.078921
-0.014258528284519,-0.6288227453104611,-0.0473037691623224,-0.0282771898291563,-0.0019836757390615,-0.007232880497487,-1.049700908565257e-05,5.103752101594758e-05,1.0525333363282728e-05,12127,-2.780448,5.495686,-106.414394
