AccX_processed,AccY_processed,AccZ_processed,GyrX_kalman,GyrY_kalman,GyrZ_kalman,MagX_processed,MagY_processed,MagZ_processed,PacketCounter,Roll,Pitch,Yaw
0.0386382619477668,0.6825933696605024,-0.0186181394578519,8.365092445469036e-05,-0.0005366099151663,-0.0012650907515426,-3.001662248895348e-07,2.2557640569166913e-08,-2.6514293605651866e-07,11582,4.380197,0.150686,38.235211
0.1212024210328323,2.00443530974462,-0.0586924032764085,8.820952291415568e-05,-0.0006298233063857,-0.0012550675017331,-4.947103725175233e-07,2.373317529363437e-08,-2.3568502087093058e-07,11583,4.329075,0.144673,38.140575
0.1637806485085776,2.626524197031934,-0.0789635255537387,8.976724008702437e-05,-0.0007512627705812,-0.0011676231294454,-6.90965489146291e-07,2.3247342609079425e-08,-2.233218625443489e-07,11584,4.285635,0.133077,38.117724
0.1279805053086435,1.8962801770259503,-0.0613690275961895,8.898362249461342e-05,-0.000887366650617,-0.0010644188535346,-8.889315747758378e-07,2.1100142515502064e-08,-2.280534610767736e-07,11585,4.247127,0.123005,38.134078
0.1411140987847544,1.9241356658991364,-0.0657871323791497,8.591514692347398e-05,-0.0010339293155285,-0.0009814232713447,-1.0886086294061628e-06,1.7291575012902268e-08,-2.498798164682045e-07,11586,4.206375,0.11332,38.096501
0.1528848363065195,1.801614455678364,-0.063638275797086,8.004981750223659e-05,-0.0011932931135772,-0.0009320326838671,-1.2168597347429144e-06,7.344505994109933e-09,-2.621780928139332e-07,11587,4.159256,0.103412,37.988932
0.148990591856233,1.539185446108962,-0.048311439196827,7.05240436776521e-05,-0.0013700037453101,-0.0009210974979049,-1.4314921026451553e-06,-1.3233125145624442e-09,-3.322432610518263e-07,11588,4.119388,0.093895,37.972248
0.1378152371717553,1.455484849047579,-0.0352950016222282,5.594363186731241e-05,-0.001573073162851,-0.0009360654874162,-1.7314564235949314e-06,3.345696521401808e-09,-4.765041280365324e-07,11589,4.088669,0.086237,37.943197
0.1200613267450278,1.2536681836304264,-0.0257328387852939,3.43036029420317e-05,-0.0018156514156626,-0.0009715856979619,-2.0272297724009988e-06,1.5360063387005112e-08,-6.154055798265043e-07,11590,4.07088,0.083477,37.899369
0.1122066323321304,1.0780627713036024,-0.0198217322816515,2.817541250598008e-06,-0.0021158511932556,-0.0010298468507355,-2.2399595378036274e-06,2.2347061814413895e-08,-6.696111590196006e-07,11591,4.065036,0.086816,37.867916
0.0800579654686306,0.9268484289906423,-0.0066791756324366,-4.247351800953415e-05,-0.0025008020903178,-0.0010998254486945,-2.364210238525684e-06,2.5789327947876983e-08,-6.469952337616153e-07,11592,4.057235,0.091133,37.87596
0.0005393776749965,0.7261636172741315,0.0226757229692897,-0.0001070791713893,-0.0030090527756847,-0.0011613529109888,-2.441889397042167e-06,3.1289414658183685e-08,-5.875314246372948e-07,11593,4.049835,0.09431,37.845715
-0.0968944936064949,0.5696426028947004,0.068122698267516,-0.0001927775621642,-0.0036534095545955,-0.0012054568990943,-2.481331112835307e-06,3.8087749968783074e-08,-5.159467118394799e-07,11594,4.046306,0.107672,37.654011
-0.1845827255247484,0.4191389017851618,0.1285155288590829,-0.0002972128325131,-0.0044184250031793,-0.0012328667151745,-2.4374269688797828e-06,4.544510792416142e-08,-4.628401417856791e-07,11595,4.035089,0.153336,37.368312
-0.2390238907639571,0.2628314507219555,0.1852245560916748,-0.0004163758151879,-0.0052778932373992,-0.0012467487868884,-2.2995022173330708e-06,5.12861117201399e-08,-4.24000063832531e-07,11596,4.013099,0.264667,36.961419
-0.2521624927639587,0.0824056063840245,0.2339217913555334,-0.0005425133457809,-0.0061804974141581,-0.0012584418889306,-2.081433977739461e-06,5.057568713035891e-08,-3.458912769528897e-07,11597,3.97407,0.440333,36.500732
-0.2390360875162046,-0.1240313651245776,0.2991812993272902,-0.0006667242891568,-0.0070698109160306,-0.0012698606130897,-1.7244461747591956e-06,4.4951947544721294e-08,-2.196322424250759e-07,11598,3.933123,0.655789,36.076735
-0.2279343325371822,-0.3147706055217313,0.3658993629404232,-0.0007781885697758,-0.0078797213314412,-0.0012727619129715,-1.1507941075802184e-06,3.9356467908094763e-08,-7.153701251018736e-08,11599,3.881953,0.897745,35.329219
-0.235629676680442,-0.4913194652747114,0.384787798265436,-0.0008598557460858,-0.0085046607629159,-0.0012617115266598,-3.959955730214126e-07,3.221406535053468e-08,8.734563111591126e-08,11600,3.786637,1.141584,34.478142
-0.2076556409725835,-0.6654384374506397,0.3612801711468434,-0.0008873442350252,-0.00879378966272,-0.0012294235073267,4.030738608232025e-07,2.3263656470976546e-08,2.2320549389700835e-07,11601,3.650738,1.322408,33.683979
-0.0760425676228485,-0.8356905234113527,0.3456147439664875,-0.0008495957596792,-0.0086855918750634,-0.0011717878618038,1.1452366512116576e-06,1.6990751538103067e-08,3.06296700246951e-07,11602,3.464955,1.442657,32.753584
0.0917733231147686,-1.0014272960254322,0.3403948916095615,-0.0007495899807005,-0.0082133811048538,-0.0010895329631632,1.8047178613161431e-06,1.4413248078681128e-08,3.166317571113329e-07,11603,3.245477,1.546772,31.692334
0.1572770148487098,-1.1677283547516064,0.3184026800888602,-0.0005941067390466,-0.0074410248819774,-0.0009826773388951,2.33042263980156e-06,1.3068262069123216e-08,2.173982443105851e-07,11604,3.033733,1.650749,30.836396
0.117914451328919,-1.334121944976529,0.2864601187644323,-0.0004008685596192,-0.0065112596419022,-0.0008525620701912,2.608585726916216e-06,1.0272172327786568e-08,3.2613095247688385e-08,11605,2.832716,1.763631,30.259093
0.0899388104559849,-1.4856718168354723,0.2441415283939831,-0.0001860594018147,-0.0055327858016903,-0.0007021207474416,2.556021891129333e-06,7.2481585760756205e-09,-1.5401581146613292e-07,11606,2.680563,1.857349,29.962501
0.0890651699750254,-1.610955983626202,0.194832473161427,3.4711159637925695e-05,-0.0045835167086627,-0.000535862249336,2.2292649350451565e-06,7.712632221188696e-09,-2.554809255045223e-07,11607,2.606559,1.906848,29.928421
0.0116977941726309,-1.7148264799581223,0.1663429336988768,0.0002319534927446,-0.0037789194450661,-0.000362171470564,1.796796463766587e-06,7.964406472088524e-09,-1.717184669330891e-07,11608,2.652292,1.894471,30.051188
-0.1435586005652485,-1.8131044336632025,0.0976665645836657,0.0003620990146056,-0.0032516725984258,-0.0001942926265774,1.369009772186223e-06,-1.6515080154906424e-09,1.4903963208413838e-07,11609,2.828765,1.859404,30.168263
-0.2430525823787436,-1.927648313434759,-0.0961132926967113,0.0004044960108019,-0.0030480853932905,-4.019155048723568e-05,9.41264957014398e-07,-2.4982742243825696e-08,6.398416698567699e-07,11610,3.047456,1.839786,30.164533
-0.2345154757414502,-2.0540057842710926,-0.3143933404918964,0.0003615798477772,-0.0031191616988871,9.723991531476476e-05,5.222373394146886e-07,-5.016184870398012e-08,1.1240991188739457e-06,11611,3.229333,1.779982,29.979702
-0.2140021545795473,-2.156842377984084,-0.3915748227750034,0.0002412356368855,-0.0033735600551976,0.0002141705249856,1.668718452998097e-07,-6.002020902717453e-08,1.4200469043390377e-06,11612,3.328991,1.538512,29.639963
-0.2236451107769385,-2.22423602215274,-0.3523564932771998,6.875681952250585e-05,-0.0036324069735429,0.0003084062127628,-1.6489873928683226e-07,-5.872371401009905e-08,1.4959388462191952e-06,11613,3.314369,1.184733,29.22202
-0.1876550363098682,-2.27660905646292,-0.3256809012770089,-0.0001381637310058,-0.0038192375436482,0.0003719316961615,-6.07194250642192e-07,-5.981111965022639e-08,1.396683712288557e-06,11614,3.234134,0.833204,28.8291
-0.0918316572896882,-2.3211598790015007,-0.3241288007893634,-0.0003690452795839,-0.0039687981947519,0.0003894720991198,-1.1643806918862785e-06,-5.7702384292588016e-08,1.13727741464771e-06,11615,3.129768,0.516262,28.500642
-0.0130600111546158,-2.353155631944748,-0.2753815880285476,-0.0005960571261263,-0.0040978658593713,0.0003430304196252,-1.6793605672066085e-06,-4.6563128152813875e-08,8.220238298675972e-07,11616,3.001046,0.25868,28.222175
0.0104346294935614,-2.375511578060973,-0.1689612259823608,-0.0007768198861886,-0.0042593390438141,0.0002084527943528,-2.083667277564944e-06,-3.884974579250884e-08,5.747729439226897e-07,11617,2.854419,0.086292,27.930035
0.0194714846501417,-2.387982212331992,-0.0665876562138928,-0.0008912874195566,-0.0044647625325639,-1.982519899859311e-05,-2.4510840407017857e-06,-4.561227331947013e-08,3.932912199379666e-07,11618,2.709487,-0.00899,27.614327
0.0412864380214025,-2.392793732252804,-0.0172073408260032,-0.0009406219826359,-0.0046703713774367,-0.0003257983526496,-2.775173405640541e-06,-6.127123695718564e-08,2.720500422342148e-07,11619,2.581508,-0.015687,27.250282
0.0540627328652795,-2.395587880334641,-0.0030720236362136,-0.000931414500623,-0.0048556060195182,-0.0006841183556895,-2.940422828312269e-06,-7.354326313494942e-08,2.3508831022846875e-07,11620,2.478369,0.064645,26.846641
0.0710215695066291,-2.4026456732781547,0.0126142510766834,-0.0008870099103893,-0.0050001463908323,-0.001049415107234,-2.930761429515762e-06,-8.12071457192969e-08,2.3843862203416e-07,11621,2.384448,0.237819,26.421549
0.1077155030892386,-2.416946350440517,0.0318936437172325,-0.0008196402530816,-0.0050943698726163,-0.0014015567413612,-2.846894199552656e-06,-8.726934374655701e-08,1.838444366741801e-07,11622,2.261761,0.455279,25.981649
0.1253948450180882,-2.41049813124902,0.0407785613677821,-0.0007302004292946,-0.0051503245450192,-0.0017478364707969,-2.733805644702356e-06,-8.58502469054357e-08,1.9014775602473283e-08,11623,2.089839,0.685696,25.506331
0.1214428111814196,-2.348600611706,0.0231613866303007,-0.0006325474295104,-0.0051820705599446,-0.002092422072009,-2.575467873494298e-06,-7.818406267638497e-08,-1.736491406117631e-07,11624,1.893482,0.917276,24.9733
0.1603288386079854,-2.247034580534838,-0.0207558633967423,-0.0005485644947314,-0.0052142903841658,-0.0024495535730413,-2.410005353541791e-06,-7.595709572292733e-08,-2.868332888393189e-07,11625,1.726025,1.133884,24.404552
0.2536042424801987,-2.149895187274661,-0.0702149187459042,-0.0004882135176264,-0.005256103619198,-0.0028206612047003,-2.28101492140696e-06,-8.359068495425493e-08,-3.016337186314723e-07,11626,1.618156,1.34716,23.84258
0.3210983774988772,-2.0694466716753768,-0.1129937182663413,-0.0004513773158908,-0.0052978303594236,-0.0031907077833668,-2.1239219145281125e-06,-9.759428366098617e-08,-1.9202075303858018e-07,11627,1.574409,1.589032,23.297948
0.315718469214479,-2.011086426789005,-0.143003536318056,-0.0004341154841027,-0.0053309306799437,-0.0035490107377304,-1.852367269004518e-06,-1.1046171422384347e-07,2.868947564126515e-08,11628,1.569301,1.889995,22.759175
0.2736530471128279,-2.001161603652357,-0.1564453625235168,-0.000422892903667,-0.0053392239601388,-0.0038820685962873,-1.4978061580922842e-06,-1.149429179351628e-07,2.270869256268797e-07,11629,1.566913,2.274,22.207853
0.2372323918896593,-2.022188265967477,-0.1578635542167877,-0.0004124674737692,-0.0053157389628689,-0.0041813795675351,-1.1346911934102145e-06,-1.1312030801873081e-07,3.3707958254119525e-07,11630,1.548404,2.74046,21.643868
0.2089337653553018,-2.013399051492663,-0.1495510780081568,-0.0004060779432242,-0.0052650754488101,-0.0044461458811609,-7.537920723834494e-07,-1.1085751577851156e-07,4.018725049010796e-07,11631,1.500858,3.24345,21.072765
0.1789368264344496,-1.9416040317125016,-0.1387169612280667,-0.0004016814483515,-0.0051883548489459,-0.0046743720954263,-3.189377862511067e-07,-1.0711068080199257e-07,4.1664203353664457e-07,11632,1.423266,3.780574,20.502271
0.1512205368823,-1.8133866529554727,-0.1464397093744755,-0.0003958597355892,-0.0050883005447303,-0.0048660779046524,1.4499037313961489e-07,-9.74353020280628e-08,3.506444317687488e-07,11633,1.317588,4.334626,19.937893
0.1117270291407798,-1.663353827842312,-0.1722882318272139,-0.000387342706894,-0.0049658293937002,-0.0050188830674939,5.919904548959551e-07,-8.0903297280604e-08,2.2011354205742122e-07,11634,1.186488,4.879028,19.386309
0.0355481378328716,-1.533238216102898,-0.1856845892303832,-0.0003757018570789,-0.0048183847271916,-0.0051269477907914,1.0009565221835167e-06,-5.8928023684231475e-08,6.564013202271165e-08,11635,1.059201,5.340424,18.857677
-0.0543345751762438,-1.4327098300843877,-0.177006827270487,-0.0003623425885185,-0.0046454594792927,-0.0051857694181002,1.361688822834497e-06,-3.268983619436731e-08,-8.955547956165857e-08,11636,0.950048,5.755224,18.344613
-0.1244638772716732,-1.3378053026099728,-0.1577016853189252,-0.000351352794966,-0.0044473324627681,-0.0051907343716741,1.6655043529388302e-06,-7.257958964612249e-09,-2.167755880041227e-07,11637,0.855751,6.156181,17.848263
-0.2112742333551976,-1.235106670694977,-0.1264678719074066,-0.0003440014222234,-0.0042248112236877,-0.005139279777866,1.925345718263051e-06,8.29504587004889e-09,-2.3074244017591482e-07,11638,0.766254,6.600142,17.381342
-0.3819183906804669,-1.1335877610805225,-0.091317050775358,-0.0003388971827211,-0.0039801330469178,-0.0050318108442734,2.195271791514326e-06,1.2743361472304873e-08,-9.769037900641325e-08,11639,0.683376,7.107861,16.954158
-0.6256267278034838,-1.0392705887739977,-0.0716574310646,-0.0003353440703935,-0.0037164216248786,-0.0048699797079075,2.523208587476232e-06,1.5294361398414017e-08,7.739774332324853e-08,11640,0.603288,7.642569,16.582935
-0.8478121702355261,-0.935006471700398,-0.0693167280280128,-0.0003320229763401,-0.003438252472312,-0.0046580291626823,2.8712152269829344e-06,2.3717091271027004e-08,1.5723398137751586e-07,11641,0.504133,8.151687,16.263776
-0.968253089418904,-0.782398250685277,-0.0758512468832943,-0.0003280971307871,-0.0031483045768888,-0.0043988415587483,3.123821975501329e-06,3.8350591505603193e-08,6.828667908012313e-08,11642,0.342226,8.586219,15.98028
-0.9716842163776988,-0.5913313036414591,-0.0489121486951465,-0.0003235261001798,-0.0028472032619216,-0.0040940082431633,3.1943185463573448e-06,5.5823171516283735e-08,-1.6848266119096662e-07,11643,0.111439,8.938134,15.722053
-0.9300619872158,-0.4225381385469429,0.0661832272428233,-0.00031755621977,-0.0025356956854568,-0.0037473493915103,3.1114825951489163e-06,7.326548989884574e-08,-4.66034474090693e-07,11644,-0.154952,9.246339,15.486547
-0.9459203338792672,-0.2646773166253571,0.211594295895427,-0.0003090069925745,-0.0022136438236699,-0.0033643430488513,2.9598374757005243e-06,8.746126755469868e-08,-7.445153669067671e-07,11645,-0.413476,9.56752,15.282773
-0.9926988552615648,-0.0899016745804886,0.2841412775518537,-0.0002963847918793,-0.0018825041814396,-0.0029557375697312,2.7561850869608923e-06,9.618174942764013e-08,-9.562375353807885e-07,11646,-0.605134,9.841199,15.095787
-1.0434110801760357,0.0098419111058189,0.3048237892044597,-0.0002775593190082,-0.0015456867891207,-0.0025393317893032,2.4788212988528024e-06,1.0056283559057417e-07,-1.0680403965273606e-06,11647,-0.693484,9.96557,14.871004
-1.2090453032684518,-0.0387682758723052,0.3152785162828673,-0.000249717645425,-0.0012067146525383,-0.0021396669324567,2.163838793122997e-06,1.0052005717348345e-07,-1.080570908319312e-06,11648,-0.70294,9.902175,14.552818
-1.4562642086732174,-0.1339125074938866,0.3193221342704651,-0.0002090824788016,-0.0008701234391604,-0.0017914846089742,1.856843036836225e-06,9.459674801394925e-08,-1.0735387858137026e-06,11649,-0.787277,9.857558,14.309979
-1.6111515852352498,-0.1137728520745564,0.3937287109226067,-0.0001539409700078,-0.0005460610359716,-0.0015132864923004,1.5410008283278915e-06,8.019715154055487e-08,-1.094061560521161e-06,11650,-0.866864,9.828182,14.250631
-1.7002804066300052,-0.0099679358226529,0.5444619993567554,-8.486270721853588e-05,-0.0002514386579468,-0.0013061241635703,1.1899142120951164e-06,5.4281445219396013e-08,-1.0483846825736991e-06,11651,-0.951138,10.038615,14.37602
-1.833462079979572,-0.0454451306967428,0.6167928321634333,-3.1548615894976136e-06,-1.0041793174721454e-05,-0.0011686695399894,8.204600550249623e-07,2.7039553911414773e-08,-9.008751683035096e-07,11652,-1.055427,10.441713,14.622899
-1.930808697749384,-0.2378838656032698,0.558481376216344,8.799363881279308e-05,0.0001439870441337,-0.0010885251836379,4.4180914871764685e-07,1.484646758433789e-08,-7.791672933945157e-07,11653,-1.109059,10.530132,14.814117
-1.9377251277709973,-0.3292082375452508,0.4903906595743768,0.0001851812992497,0.0002011455562248,-0.0010581301656379,1.0002532027817e-08,1.4068188512331453e-08,-7.274954135348204e-07,11654,-1.110113,10.350836,14.854064
-1.9569646246026555,-0.2374919579290852,0.4570553285397046,0.0002845123161835,0.000179382760898,-0.0010749490302475,-4.685083833666433e-07,9.663470705140866e-09,-6.258258930572241e-07,11655,-1.072762,10.197572,14.783012
-1.9670657964115168,-0.1347783707605875,0.3945492220503804,0.0003792744406151,0.0001068777463659,-0.0011249776435674,-8.49899191964724e-07,-1.2056547339739755e-09,-4.086092912462072e-07,11656,-0.992777,10.198271,14.691301
-1.880234664815684,-0.0989751059325746,0.3134213669722844,0.0004596136501865,3.577810391526269e-05,-0.0011846298700013,-1.0092389860273862e-06,-1.3053882488918024e-08,-1.2821258886246877e-07,11657,-0.840877,10.418801,14.625769
-1.706667233225042,-0.0855620911479689,0.2586401054726411,0.000520262777888,-1.3094313687067483e-05,-0.0012429943882957,-9.806301963845477e-07,-2.5282950286774637e-08,1.9187243610162403e-07,11658,-0.63846,10.79644,14.569595
-1.4272287598949085,-0.0668924353330256,0.1984749381702103,0.0005605691696718,-5.33266383052612e-05,-0.0013006361569986,-8.645196381805917e-07,-3.6895326179888065e-08,5.57253865379152e-07,11659,-0.453572,11.204978,14.476267
-1.0706901758051002,0.0054730326778625,0.1104488981435586,0.0005804904169229,-9.550786482071768e-05,-0.0013597917330519,-7.505896099874701e-07,-3.653380635230195e-08,8.713562597227364e-07,11660,-0.3445,11.477453,14.35353
-0.8038364568628241,0.1327787874253861,0.0421464608745918,0.0005829630948244,-0.0001637282173475,-0.0014305782766554,-7.387935195979748e-07,-2.09572569117132e-08,1.0199615856620154e-06,11661,-0.331411,11.585995,14.232372
-0.6905593241133232,0.2432361522579651,0.002261362578027,0.0005685714684521,-0.0002639285770997,-0.001513026496303,-8.954928535684646e-07,-9.267455578898972e-09,1.0371544995826414e-06,11662,-0.37772,11.602975,14.115409
-0.5479839097826574,0.32475739762216,-0.0702727081421806,0.0005353000067529,-0.0003791496397956,-0.0015957705260702,-1.1656380448744347e-06,-1.3970561123975012e-08,1.0107797442406083e-06,11663,-0.413887,11.596851,13.994067
-0.2631987472921262,0.3795132325951714,-0.1522729734663157,0.0004832170094768,-0.0004968821563018,-0.0016692015659647,-1.3953067540709404e-06,-2.516072510837593e-08,9.886197612810194e-07,11664,-0.398709,11.629644,13.864004
0.0172534872850252,0.3935939295104733,-0.1806663280469374,0.0004133398380444,-0.0005989059106966,-0.0017201762716278,-1.4768797531320596e-06,-3.52344791010969e-08,1.055426902460474e-06,11665,-0.318994,11.724939,13.73573
0.175255814976005,0.405120652690082,-0.224898288899193,0.0003259990225231,-0.0006757323361127,-0.0017387170746734,-1.4193603852153167e-06,-4.6544224904226116e-08,1.2538433381618551e-06,11666,-0.204309,11.889804,13.621068
0.2536043285413091,0.4344701019299988,-0.3382515824307919,0.0002213987374313,-0.00073015650151,-0.0017193207940063,-1.271939438790674e-06,-5.1824832037099714e-08,1.442834391126642e-06,11667,-0.095549,12.096705,13.513634
0.3299324811849412,0.4700505680882365,-0.4369320872869626,9.97765367675772e-05,-0.0007628551532676,-0.0016534856227952,-1.074078157862423e-06,-3.8790708773168616e-08,1.4619293047426642e-06,11668,-0.028989,12.335983,13.384413
0.4292634940226581,0.5064804706583614,-0.4816342187065453,-3.879807157072579e-05,-0.0007776663790642,-0.001531514565959,-8.914512642949087e-07,-1.6388382834113124e-08,1.3676689486200206e-06,11669,-0.005103,12.603598,13.218326
0.5338079067682548,0.5424568667770788,-0.5187142310652483,-0.0001920386430753,-0.000777586155057,-0.0013634964553106,-7.942646199857213e-07,-3.870368738508594e-09,1.2945903765192211e-06,11670,-0.008614,12.849712,13.017371
0.6384640660849343,0.6003645326826038,-0.5483510195655315,-0.0003550334330749,-0.0007636743570788,-0.0011822503457092,-7.679507620138462e-07,1.5722243615748046e-09,1.2011191996119342e-06,11671,-0.036633,13.019204,12.809757
0.73990872866776,0.6191976537169829,-0.5405786536614164,-0.0005210043397999,-0.0007419334687103,-0.0010388321228509,-7.375918889971885e-07,1.2073031856245933e-08,1.0012931839552016e-06,11672,-0.097112,13.103292,12.593597
0.8106580683118104,0.5999763732657362,-0.506238266806049,-0.0006799980314367,-0.0007228192397258,-0.0010142280660188,-6.63521862996142e-07,2.2476147310404024e-08,7.629985864766121e-07,11673,-0.204321,13.07838,12.348541
0.833919387785024,0.8291450973881535,-0.4882768811937792,-0.00082559582324,-0.0007114264261223,-0.00112464484384,-5.419434034882099e-07,2.340894380277789e-08,5.57246286887229e-07,11674,-0.346751,12.898757,12.001587
0.8560158971311438,1.343681582062484,-0.4903673475718679,-0.0009550476870962,-0.0007080962552771,-0.0013142115069598,-3.511819537044973e-07,1.860732555974778e-08,3.279393443226677e-07,11675,-0.646811,12.844401,11.713044
0.8912689983784283,1.6553018046889014,-0.3947840705098416,-0.0010648182602822,-0.0007129746672827,-0.001504226501989,-3.377373975119273e-08,1.8747177967776997e-08,4.067506635703733e-08,11676,-0.997153,12.891286,11.622292
0.854144963498148,1.5691121847197624,-0.1139005085119549,-0.0011523797651967,-0.0007234496080854,-0.0015572860792321,4.171067753187862e-07,3.02554663695126e-08,-2.0770314189240366e-07,11677,-1.22927,13.429827,11.55105
0.7381924559038636,1.4545333061838623,0.1985896159590818,-0.0012116737701063,-0.0007400535947917,-0.0014139921387605,8.825316291871177e-07,5.1672763562500455e-08,-3.453267982549812e-07,11678,-1.397827,14.369864,11.504997
0.6664171949795007,1.3831467777080664,0.343926380115676,-0.0012321509319983,-0.0007669560817399,-0.0011015117543546,1.218933355001114e-06,7.627831354482468e-08,-4.655717368327176e-07,11679,-1.514747,14.951866,11.398483
0.6962571818042871,1.0723270476209732,0.3541530392642088,-0.0012017245909065,-0.0008072144794741,-0.0006400809425768,1.3657467086511178e-06,9.527881131709265e-08,-6.888786894189967e-07,11680,-1.631566,15.148921,11.216319
0.7289900293317209,0.6800439926871811,0.3948012477694391,-0.0011046682300078,-0.0008644104335116,-8.434245087310301e-05,1.33098802818312e-06,1.0476674325282825e-07,-1.0338590194128636e-06,11681,-1.778626,14.96328,11.036715
0.7116473670014023,0.5537117948316573,0.551456374569401,-0.0009340555595865,-0.0009404810224746,0.0005056348173702,1.1385316359427e-06,1.0357148844788661e-07,-1.4406723468548628e-06,11682,-1.974973,14.481822,10.920934
0.7940922711264139,0.6013032874111204,0.7428006467801378,-0.0006931094669733,-0.0010349811517377,0.0010658156059887,8.321107719440528e-07,8.47411715165159e-08,-1.8045674669483813e-06,11683,-2.198226,13.895044,10.852522
1.063467481777988,0.5877790158842231,0.813865309384144,-0.0003884521727863,-0.0011470938935922,0.001548382109026,5.316647531128719e-07,5.140165591406126e-08,-2.0413208744290764e-06,11684,-2.399763,13.319118,10.78024
1.3650563656987589,0.4933573752177176,0.7525996809573172,-3.5096640899255844e-05,-0.0012745809398245,0.0019318087985753,3.49579004697462e-07,2.099697082639313e-08,-2.106179619029216e-06,11685,-2.530057,12.839693,10.687727
1.562986670407294,0.3364106986181205,0.6668845034343206,0.0003489789093674,-0.0014136759011882,0.002195168332019,2.416019767821827e-07,-3.2933322167903343e-09,-1.97908333910991e-06,11686,-2.541611,12.474998,10.560324
1.691959960443718,0.1292602143944494,0.605412530938866,0.0007411685722876,-0.0015587017540227,0.0023298963398299,9.38964085081732e-08,-3.131978582705672e-08,-1.7072876304155111e-06,11687,-2.43094,12.198717,10.399426
1.7893114241912955,0.0124475491308718,0.5591135958586039,0.0011044161567879,-0.0017004593823517,0.0023661655611798,-8.868662691364355e-08,-5.882692433310705e-08,-1.3926389772854783e-06,11688,-2.235617,11.961816,10.2211
1.8578207542554348,0.037238471935541,0.4638300105020523,0.0013845538672718,-0.0018251852189847,0.0023806838637742,-2.2844074323522078e-07,-7.415850082183412e-08,-1.122214890396214e-06,11689,-1.988861,11.611418,10.011239
1.9850598451392183,0.0734212062452003,0.2519706148857621,0.001555368353268,-0.0019253756701497,0.0023967579951077,-3.4290417216749e-07,-7.985357945804281e-08,-9.208626605102262e-07,11690,-1.74437,11.150973,9.749884
2.2140635754499147,0.0777318567896328,0.0243027524925696,0.0016196545499338,-0.0019999294736998,0.002386556756367,-4.760158349426434e-07,-8.229237679886088e-08,-7.782933487804677e-07,11691,-1.536338,10.650234,9.437618
2.4103501157805685,0.0910185254964805,-0.0711221513443578,0.0015860536435806,-0.0020480476518362,0.0023304869518626,-5.423077269163126e-07,-7.63476641552969e-08,-6.989428838618628e-07,11692,-1.373024,10.168334,9.118968
2.4318984659057383,0.1027764401836147,-0.0716555241647625,0.0014838207500282,-0.0020724657672753,0.0021916045030669,-4.486344987915361e-07,-6.239500875757814e-08,-6.60594353745633e-07,11693,-1.242499,9.770615,8.809912
2.289768098536689,0.1091285269118075,-0.078586721435998,0.0013341546548496,-0.0020722262203405,0.0019696034647819,-2.2962630985999457e-07,-5.423625098609803e-08,-6.181051368956247e-07,11694,-1.142957,9.501299,8.508217
2.0971789965265035,0.11739622488997,-0.1033702923633165,0.0011505833415666,-0.0020420588858238,0.0017106932989304,8.456945774866293e-08,-5.121930943941733e-08,-5.857984957088198e-07,11695,-1.072507,9.359015,8.193479
1.928154945834748,0.12061750169953,-0.1172330670941535,0.0009683321776712,-0.0019784623276303,0.0014670322056221,5.418251415002963e-07,-3.53462274266864e-08,-6.03758791570296e-07,11696,-1.020939,9.306721,7.880671
1.7744012494264207,0.1445950670613385,-0.0803876288030587,0.0008415104719473,-0.0018777817117539,0.0013180493179523,1.1218339983225274e-06,-6.871593634981879e-09,-6.551773568205396e-07,11697,-0.987429,9.315382,7.587884
1.5936335598282774,0.2069471735670499,-0.0008375400792672,0.0007946083193282,-0.0017380260868952,0.0012988179094212,1.6820877681815952e-06,1.5155813233198752e-08,-7.04123164895413e-07,11698,-0.975425,9.370225,7.3365
1.386918254780115,0.3037413067490773,0.0379478123898405,0.0008235676673337,-0.0015598285110799,0.0013923284877393,2.106530946253804e-06,2.5764091900107622e-08,-7.488348223443791e-07,11699,-0.97556,9.37957,7.138094
1.2216792102220202,0.4314305701647754,0.0135134104066902,0.00091696148785,-0.0013445268674622,0.0015788492829989,2.383863082032292e-06,3.2111239565220045e-08,-7.812291294014652e-07,11700,-0.974336,9.296187,6.999325
1.0633665775243757,0.5148416257077881,-0.0244140568165651,0.0010408599113256,-0.0010952952040577,0.001811204504782,2.514920471311135e-06,3.2448422767068335e-08,-7.66777245568488e-07,11701,-0.946319,9.160543,6.899362
0.786583999011805,0.5631470856166072,-0.0461153025397136,0.0011743345172119,-0.0008180001378959,0.0020503638919662,2.473094988262784e-06,2.3018831559262012e-08,-6.858732294121466e-07,11702,-0.840169,8.939632,6.835904
0.4497973117041977,0.7981687483995746,-0.0510107801486205,0.0013093859073684,-0.000521908702304,0.0022665322812975,2.2650368680696856e-06,1.1053808333874718e-08,-5.241906072847132e-07,11703,-0.640333,8.603605,6.790772
0.2112301924478236,1.2288701497899184,-0.1137954824554283,0.0014187843639861,-0.0002214387347894,0.0023964638795424,1.964626517643474e-06,6.127195380017645e-09,-2.3706452165182533e-07,11704,-0.359297,8.101045,6.755867
0.0401080068776894,1.496097080604463,-0.3055541572505488,0.0014615475669671,6.20482363195028e-05,0.0023461673095538,1.718709341802762e-06,9.384248761701809e-09,1.7592721396253178e-07,11705,-0.11429,7.517801,6.827281
-0.2096786852554973,1.4447351746950907,-0.6011358253634984,0.0014191140410362,0.0003261527015702,0.0021014173727159,1.6857912830641465e-06,1.8950181037846192e-08,6.057861402906234e-07,11706,0.142399,6.919303,6.864907
-0.5569811283324386,1.3058228414286053,-1.0354912717541098,0.0012935985991197,0.0005896465524669,0.0017329077483605,1.916886332551647e-06,3.729783036105114e-08,9.276358053217212e-07,11707,0.390773,6.664334,6.817741
-0.8604797491986027,1.233770925499853,-1.5927353148359913,0.0010945053010313,0.0008807048644898,0.0013529269241794,2.347226820197789e-06,6.622449126321962e-08,1.0917338441913484e-06,11708,0.702619,6.818141,6.630929
-0.988581158691732,1.127508902494215,-1.97049580244051,0.0008500350005362,0.0012475719919867,0.0011592286410568,2.8553119505220933e-06,9.885096676610733e-08,1.1554888900365843e-06,11709,0.935535,7.381334,6.477996
-0.9687702565008732,0.8795372557742122,-1.963711845470013,0.0005784459353345,0.0017004646872541,0.0012170325243844,3.2485971814219803e-06,1.2243469510228905e-07,1.2376450721009429e-06,11710,0.971081,7.708255,6.491394
-0.9516877072237544,0.5829823770031412,-1.7834333082220182,0.0002887640168187,0.0022068754198103,0.0014458433544768,3.3286088146903062e-06,1.2953437568069726e-07,1.353822302951055e-06,11711,0.928042,7.467785,6.645475
-0.9801176907929532,0.402354725801812,-1.6506311153117146,6.323832088896402e-06,0.0027252214503392,0.0017539070292812,3.0822858274712235e-06,1.2485748741981516e-07,1.4089343455207458e-06,11712,0.911114,6.965274,6.91148
-0.9026592712244528,0.285655093268098,-1.5490100855236464,-0.0002311534207491,0.0031839201360905,0.0019672160797256,2.6883530450192617e-06,1.1692943275026717e-07,1.3745722929690017e-06,11713,0.906451,6.438934,7.280448
-0.6651282861764962,0.1375049816642311,-1.4150428180199752,-0.0004051364943614,0.0035485786511198,0.0020202659999769,2.294257335196797e-06,1.060027176947176e-07,1.3199798763609965e-06,11714,0.855039,6.055572,7.704275
-0.4528570735911483,0.0333362228142475,-1.1707069670489902,-0.0005148856971792,0.003826741053887,0.0019747732717299,1.9143589552851046e-06,9.138319602682245e-08,1.2665893222122375e-06,11715,0.720189,5.797506,8.192486
-0.399154023077449,-0.1244836260433485,-0.8028653359415321,-0.0005649662440139,0.0040188885862652,0.0018743982509361,1.5333930112594203e-06,7.939109335587084e-08,1.1545225554253553e-06,11716,0.523019,5.589302,8.745922
-0.4226475540356868,-0.5155270067998919,-0.4891551957110264,-0.0005749070516969,0.0041381363362965,0.0018035271872629,1.1606954012575771e-06,7.208495083236639e-08,1.0013091252628843e-06,11717,0.330174,5.371303,9.307329
-0.4196808467155803,-0.9018184509060568,-0.3616553095975532,-0.0005540173859228,0.00419249694216,0.001796077653904,7.794925673522591e-07,6.512415265612473e-08,8.892417603460288e-07,11718,0.163224,5.127356,9.816605
-0.3433923580251694,-0.9771933158877136,-0.3357282737700087,-0.0005013092125787,0.0041813362783904,0.001818315459566,3.741099055043875e-07,5.9530182490500345e-08,7.802126247624327e-07,11719,0.032015,4.86392,10.263068
-0.1696259288184581,-0.8683033495021671,-0.299116863904206,-0.0004269159782502,0.0041211591773787,0.0018575495965675,4.345689312985491e-10,6.039517881116228e-08,6.014073337222378e-07,11720,-0.062052,4.594136,10.674388
0.0080278711903245,-0.7917582620249898,-0.2475193280939339,-0.0003475507678878,0.0040429986169731,0.0018931379326964,-2.9283505102126144e-07,6.371602504871863e-08,4.342611533683463e-07,11721,-0.10827,4.328739,11.084173
0.0694769228245926,-0.7431572462228709,-0.2119945126622607,-0.0002709948318149,0.00395957380279,0.0019153245373329,-5.435014339137508e-07,5.745838164507209e-08,4.164053136827718e-07,11722,-0.117113,4.09833,11.484638
0.0386310569870744,-0.6787023415009206,-0.2045090005306431,-0.0001979331090529,0.0038674887079707,0.0019355033236502,-7.655530259310202e-07,3.910603634602856e-08,5.538003967031617e-07,11723,-0.09604,3.909009,11.869192
-0.0088499086674364,-0.5506911889814385,-0.2286932529008803,-0.0001265529553452,0.0037616521113844,0.0019550594413049,-8.887403554577716e-07,1.7861439972397438e-08,7.343283947795888e-07,11724,-0.053176,3.76407,12.195974
-0.0314731729501628,-0.3069779879028529,-0.2484279388270595,-4.835289669686508e-05,0.0036265290728333,0.0019731858575443,-8.848131720793421e-07,3.1059857017941947e-09,8.42313865761656e-07,11725,-0.00452,3.642477,12.456681
0.0116367097787436,-0.0419581082293967,-0.2216379541404819,3.6821361455252426e-05,0.0034615906589876,0.0019883470796608,-8.427766874922157e-07,1.0634401646177792e-10,8.134490096582735e-07,11726,0.024457,3.499815,12.665407
0.1278948107914711,0.1302444223410134,-0.1674657793179453,0.0001201237652878,0.0032835275074204,0.0019941134430934,-8.711209410975132e-07,5.5991859386648305e-09,6.66147454300701e-07,11727,0.00921,3.293315,12.844315
0.235176911427391,0.2320757728650433,-0.109085026367832,0.0001939868101216,0.0031081489281312,0.0019841157965361,-9.740862546269512e-07,1.1284967573356732e-08,4.76219698182144e-07,11728,-0.041163,2.983975,13.007929
0.2525962227453184,0.3299042508060616,-0.0640474664938522,0.0002478571945667,0.0029584232658739,0.0019504832595742,-1.0803893605478696e-06,1.6523447907935114e-08,2.95997430270931e-07,11729,-0.115342,2.614246,13.155354
0.203262336857065,0.4749540168087414,-0.0274867393300809,0.0002771246178683,0.002845348346859,0.001889278205216,-1.1673028639382492e-06,2.3586774655146737e-08,1.670126549604826e-07,11730,-0.192831,2.257046,13.304194
0.1345851581193212,0.6420663463791427,0.0631477791086346,0.000284791168914,0.0027650839663304,0.001801602098838,-1.2683929974590808e-06,2.650760212586036e-08,1.3150544421347012e-07,11731,-0.214466,1.965214,13.443635
0.0945164175954717,0.722911272222865,0.1655780641659815,0.0002745482435682,0.0027135950000903,0.0016897786440871,-1.3789095370496529e-06,2.1803668228459167e-08,1.3985069444747324e-07,11732,-0.172013,1.703686,13.475542
0.0952757096105879,0.6858340528885192,0.264680378255696,0.0002542587770864,0.0026798139659624,0.001559741404088,-1.4578971308923278e-06,1.8831089424429016e-08,5.2858418043040646e-08,11733,-0.223094,1.568146,13.521866
-0.0715335634715427,0.6233170148829701,0.5873642855237206,0.000233773220749,0.0026527554884322,0.0014174828796023,-1.522621731847255e-06,2.2581137933382493e-08,-2.054255337629976e-07,11734,-0.386085,1.37405,13.743948
-0.5735659206817827,0.6035238033698844,1.1120795642127517,0.0002254545128998,0.0026216306550929,0.00126942292659,-1.6262402199195871e-06,2.3265219602586373e-08,-5.739716553494741e-07,11735,-0.668536,1.359129,14.173891
-1.1051053137962574,0.5844923702550111,1.3949553441368732,0.0002497359842226,0.0025649584660058,0.0011271739241339,-1.740059483400792e-06,1.8491365531012112e-08,-9.53093538290791e-07,11736,-0.942312,1.54167,14.665664
-1.2799671022077712,0.4992758659540986,1.307158683227215,0.0003366564546218,0.0024501117889235,0.0010079304622289,-1.7814600920707729e-06,2.177639657716753e-08,-1.2558469284549468e-06,11737,-1.005697,1.785306,14.968332
-1.195451000294406,0.3467956115146274,1.1938043981144917,0.0004889557114553,0.0022686642537714,0.0009196955876439,-1.7584998304786547e-06,3.630526665855482e-08,-1.3610759532266716e-06,11738,-0.873326,1.740121,15.053352
-1.121418074644327,0.1829794835850823,1.1729373359883035,0.0006791428591585,0.0020377898096668,0.00086109030228,-1.770676340943404e-06,4.926867160989864e-08,-1.2052376225368963e-06,11739,-0.6563,1.577476,15.029797
-1.0683127541159911,0.0263307936843408,1.0529928274289526,0.0008653418119925,0.0017847147321055,0.0008285807130124,-1.847902119121172e-06,5.7182980530148886e-08,-8.910346440559949e-07,11740,-0.431767,1.419078,15.019461
-0.9909241653242594,-0.1283317612788465,0.8331321135014272,0.0009759622952199,0.0015598589076436,0.0008116519275203,-1.9178348521470456e-06,6.520409955504553e-08,-5.588529668038044e-07,11741,-0.215036,1.331003,15.072603
-0.9191201854693748,-0.2260254728071946,0.6750797644248432,0.0009863322305666,0.0013848532667673,0.0008024721973061,-1.9553859996057527e-06,6.937548385511257e-08,-2.726755936879417e-07,11742,0.001154,1.231952,15.148605
-0.7572677533169854,-0.2934509243163843,0.6276391316263803,0.0009235736997831,0.00125003149332,0.0007956838352942,-2.0132631996307963e-06,6.737528377261049e-08,-9.637580859813977e-08,11743,0.198002,1.031269,15.174946
-0.369022124083426,-0.4206408691909721,0.6185404699361151,0.0008194599159038,0.0011499903387319,0.0007786083601162,-2.1355798933993906e-06,6.799664179461168e-08,-8.192360027442437e-08,11744,0.335818,0.759129,15.141998
0.141732771798365,-0.5377037149370351,0.5835462392990161,0.0007356596379616,0.0010686152712715,0.0007321555326741,-2.3325468552791697e-06,7.21262426005059e-08,-1.397637533374297e-07,11745,0.408474,0.465898,15.094939
0.5028802746992564,-0.5382146171850821,0.5413722883614183,0.0006960216761428,0.0010013132751229,0.0006471463391491,-2.5544550876356877e-06,6.822844398335002e-08,-1.0214456779796249e-07,11746,0.435704,0.216706,15.060568
0.6131207532904411,-0.4627382178487094,0.5327943622031395,0.0006802821963399,0.000958815196325,0.0005239403407455,-2.708935984465205e-06,5.422915357240349e-08,5.95585702821623e-08,11747,0.442513,0.046488,15.039256
0.5816463705545849,-0.4105487477196299,0.5780026727988885,0.0006761029578605,0.0009449027769725,0.0003652391894804,-2.751549688469016e-06,3.964673286337651e-08,2.3461492787265245e-07,11748,0.436156,-0.033463,15.018204
0.5140627338449976,-0.3825220758283709,0.6432431134634875,0.0006587270216347,0.0009628443039606,0.0001811418296644,-2.715182177909598e-06,2.6645000631882348e-08,3.773937580486486e-07,11749,0.428603,-0.035153,15.016855
0.4582587289024308,-0.2779065112967155,0.6639778206670083,0.0006200313233226,0.0010080022092157,-2.2896499710897992e-05,-2.666814512004125e-06,1.0792036121741438e-08,5.213376623142592e-07,11750,0.437922,0.019022,15.069377
0.4133035405826546,-0.070589091159815,0.6415733830222812,0.000574838974214,0.0010636715111559,-0.0002461383455232,-2.637939713560889e-06,-3.7239570782259836e-09,6.244196840169746e-07,11751,0.463367,0.079721,15.165227
0.3708560965890795,0.1428171024099678,0.599977396055906,0.000531845941564,0.0011074421486693,-0.0004818482532548,-2.630124262501899e-06,-9.84164819793054e-09,6.10968890173774e-07,11752,0.456752,0.077101,15.288685
0.3413724291110192,0.2955961345125562,0.5438321843561021,0.0005033809259177,0.0011057874114942,-0.0007193209370004,-2.6694704963683045e-06,-1.404115697173587e-08,5.28779026669587e-07,11753,0.403526,0.0362,15.410134
0.2662437319407426,0.4180893933094396,0.488844815820516,0.000494096946675,0.0010433328166027,-0.0009528699775368,-2.7404037265361263e-06,-2.751512480711166e-08,4.982395938116019e-07,11754,0.35613,0.020142,15.500961
0.129684522491991,0.5601079007803513,0.4399487196015491,0.0004969658553189,0.000924953168755,-0.0011808763724895,-2.776300834771847e-06,-5.016873550020689e-08,5.583644843566178e-07,11755,0.344429,0.043139,15.561334
0.0324592564339583,0.7410644756733231,0.3983149913522653,0.0005056147129142,0.0007578346537704,-0.0014026268791596,-2.7795854844257364e-06,-7.743972351637816e-08,6.867326431545893e-07,11756,0.346901,0.163613,15.652031
-0.1104469965979308,0.9171757739238108,0.2944981051625417,0.0005093689721648,0.0005613819631499,-0.0016206638534464,-2.784097396690485e-06,-1.0761043917374259e-07,8.932722771555542e-07,11757,0.338661,0.270953,15.792971
-0.5049061645265571,0.9941585278185844,-0.0497828807755063,0.0004949171074253,0.0003500802877629,-0.0018323448756339,-2.737339272744228e-06,-1.400293271192096e-07,1.2131163909639163e-06,11758,0.289656,0.378274,15.921791
-0.9700001543168078,0.9770132253787668,-0.5961796354021421,0.000446252019373,0.0001332150976603,-0.0020292046812349,-2.513564034436998e-06,-1.728579570284439e-07,1.6491346816586775e-06,11759,0.38791,0.417706,15.807805
-1.1634782401527253,0.9404944298811604,-0.9885200132009576,0.0003378638071206,-6.671365800614906e-05,-0.0022024402628619,-2.037062587959981e-06,-1.97350311788448e-07,2.1150686447436768e-06,11760,0.644758,0.691228,15.515057
-1.1687036499392716,0.8868264378579362,-1.0449012742532178,0.0001329469393428,-0.0002158610209009,-0.002340139576053,-1.4104627143861208e-06,-2.062488800494842e-07,2.4693849362448544e-06,11761,0.893165,1.061045,15.218696
-1.1955815390838334,0.8174469796535926,-0.9461162920794928,-0.0001734354589621,-0.0003004868841114,-0.0024355278502109,-8.283295835965092e-07,-2.0547731809511746e-07,2.615192521224092e-06,11762,0.962462,1.425278,15.070365
-1.2000940774598725,0.7273664796077524,-0.8925615560156905,-0.0005509941970154,-0.0003266876798529,-0.0024879433494933,-3.9825589666198315e-07,-2.0184228645446972e-07,2.5000048526839486e-06,11763,0.843402,1.821979,15.038843
-1.1251548160419695,0.5826975231459866,-0.8744645453041232,-0.0009527092542969,-0.0003072891584028,-0.0024970232188796,-1.415470619443998e-07,-1.9489058469305654e-07,2.119900541105198e-06,11764,0.585151,2.240742,15.047475
-0.984338381054766,0.4179488416235678,-0.7396024167908521,-0.0012969610018954,-0.000272316416364,-0.0024655809057944,-3.11702260279189e-08,-1.8727251687306121e-07,1.5804476343582078e-06,11765,0.240914,2.656728,15.04259
-0.8102195690515075,0.209776284845865,-0.4592180049304827,-0.0015489029597766,-0.000237267234661,-0.0023960949309398,-1.3360175568498175e-09,-1.884024414689668e-07,1.0449430488493613e-06,11766,-0.147107,2.942707,15.013275
-0.6743828827695503,-0.1437317058234244,-0.234423239556161,-0.0017245490860234,-0.000202527091226,-0.0022906905356629,2.5585408991469923e-08,-1.996624834462185e-07,6.063537699685818e-07,11767,-0.532757,3.073999,14.970319
-0.5276835400542769,-0.5283047130516367,-0.1771729415289747,-0.0018378169916989,-0.0001783958705751,-0.0021559487848995,1.153762365463753e-07,-2.0486277065051218e-07,2.503431909431413e-07,11768,-0.879093,3.110465,14.930054
-0.2760985075052444,-0.696619146228056,-0.1621954515481586,-0.0019251523689758,-0.0001781453081908,-0.0020029553019354,2.519270837323124e-07,-1.9459263567872499e-07,-5.417726490912338e-08,11769,-1.169652,3.147689,14.897352
-0.0539376770844728,-0.6585560754939108,-0.1267811045435949,-0.0019986803983169,-0.0002090627775193,-0.0018377465032206,3.455609885020692e-07,-1.7999677603029445e-07,-3.188975044643184e-07,11770,-1.415552,3.248225,14.876729
-0.0004706145170492,-0.5950135318354607,-0.1203684364616666,-0.0020405031813124,-0.0002744914014754,-0.0016617463831441,3.63221086059538e-07,-1.6598864158656302e-07,-6.046182801425109e-07,11771,-1.634146,3.448824,14.854116
-0.0098769907718141,-0.5513727844929127,-0.1264287184254093,-0.0020447537786983,-0.0003729905269942,-0.0014767933604664,3.590240225061508e-07,-1.464712216886994e-07,-9.266585296144628e-07,11772,-1.852671,3.710161,14.843763
0.0115537268911177,-0.5017630995177966,-0.1411750289668934,-0.0020044720104759,-0.0004955651059298,-0.0012827103952306,3.660688008965581e-07,-1.278812732103587e-07,-1.1436419261228848e-06,11773,-2.076312,3.942304,14.826133
0.0440464526838452,-0.4618233855287754,-0.1800181971431848,-0.001922053308437,-0.0006363159263257,-0.0010849311296277,3.4093840404970904e-07,-1.2312492163293236e-07,-1.1602150527557642e-06,11774,-2.285905,4.106216,14.782819
0.084926169289167,-0.4290835268441437,-0.1991518220747883,-0.0018154752861016,-0.0007912712979553,-0.0008957029129358,2.667055904506587e-07,-1.282508496582611e-07,-1.067873853429477e-06,11775,-2.456521,4.168723,14.728562
0.1197583895813132,-0.3505735479413926,-0.1877578586540376,-0.0017054554996212,-0.0009496771219263,-0.0007294133940075,2.1486499040905598e-07,-1.2887927044402433e-07,-9.638141493696735e-07,11776,-2.580119,4.134978,14.638533
0.1323548250744477,-0.134305242691492,-0.1639224689082805,-0.0016219829188349,-0.0010948575576847,-0.0006058240744081,2.178459639888636e-07,-1.2187389948290585e-07,-8.5941902812969e-07,11777,-2.665272,4.069051,14.464519
0.129028997203047,0.220665983649883,-0.1347102763839865,-0.0015777402985394,-0.0012165617104042,-0.000538598151712,2.129198256785833e-07,-1.146948912264948e-07,-7.691881236552429e-07,11778,-2.729819,3.986706,14.223976
0.1294180510038441,0.5270049182533433,-0.1170081327379615,-0.0015650370578409,-0.0013101249669064,-0.0005346807388173,1.5656237692180108e-07,-1.1092488576429359e-07,-7.272231615309987e-07,11779,-2.793863,3.870387,13.967568
0.1414707745534215,0.6157099782767074,-0.1083224383934067,-0.0015730122784244,-0.0013703844270053,-0.0006026205920104,5.756513958615216e-08,-1.0373147663708909e-07,-7.789706609057538e-07,11780,-2.88473,3.745956,13.751793
0.1279334235692424,0.5466985656386656,-0.0927532379246588,-0.0015778278521635,-0.0013947140203076,-0.0007493844728509,-9.863409942742068e-08,-8.541864232077388e-08,-9.82664841183474e-07,11781,-2.935323,3.566216,13.496997
0.1535073992275968,0.525449871237174,0.0671097114941413,-0.0015568321570639,-0.001385059213186,-0.0009666706198884,-3.32618579901172e-07,-6.137905027522045e-08,-1.3536995994908795e-06,11782,-3.086456,3.496091,13.207928
0.1977868703619773,0.6463143917014416,0.563734726664469,-0.0014878703796649,-0.0013488248795271,-0.0012283435189375,-5.516828286916754e-07,-4.031295986587405e-08,-1.8643979790807924e-06,11783,-3.361284,3.237844,13.051351
-0.0919817399650414,0.7767901931693018,1.1775805877095968,-0.0013311050454822,-0.0013018371535725,-0.0014906360939538,-5.90686347002406e-07,-1.92383455182543e-08,-2.4677823610164e-06,11784,-3.793944,3.261893,13.062944
-0.7215906376777748,0.763534599376384,1.4251882747383804,-0.001028531935515,-0.0012713584199144,-0.0016828495304293,-4.155341265894738e-07,7.0794262414267365e-09,-3.035922857740197e-06,11785,-4.313303,3.654208,13.22787
-1.0930534778979142,0.5782372046991067,1.289807004610783,-0.0005721198375065,-0.0012673226671073,-0.0017738109117478,-1.1932881498432466e-07,3.3689623032151334e-08,-3.3701126363350683e-06,11786,-4.58921,4.193988,13.272808
-0.9952017896609738,0.2761809809990588,1.1441968742344657,-8.204985536385077e-06,-0.0012815599235354,-0.0017742268734753,2.454829803407563e-07,4.9324079149291067e-08,-3.3501902802642463e-06,11787,-4.559356,4.558034,13.063873
-0.831101260626442,0.0212297523811495,1.0913855938209067,0.000590391948385,-0.0013037726937637,-0.0016978450847761,6.413997028521401e-07,5.2278217376182135e-08,-3.056161121896895e-06,11788,-4.326508,4.774464,12.733537
-0.7770876693457858,-0.0956867055781163,0.9618350541792636,0.0010965478200093,-0.0013124511661483,-0.0015822566648867,9.380026601425394e-07,5.2679954822756015e-08,-2.688879041601744e-06,11789,-4.016971,4.905228,12.460087
-0.7148025423162659,-0.2458217559914213,0.710518996774895,0.0014558095929195,-0.0012978677057471,-0.001448293426532,1.0217312507485285e-06,5.375028876570924e-08,-2.373677156617805e-06,11790,-3.682057,4.989243,12.268792
-0.6078356706275488,-0.5094613725322964,0.4431286889370679,0.0016925041520627,-0.0012637314347702,-0.0012976727955432,9.488032056665724e-07,5.4025601107257054e-08,-2.150961607494689e-06,11791,-3.364335,5.001353,12.13213
-0.3384714190031592,-0.6682588491084863,0.2730459222493217,0.0018270624197821,-0.0012086495403163,-0.0011514735207101,8.456485324325166e-07,5.868465590557996e-08,-2.0132127396116317e-06,11792,-3.068686,4.909402,11.987626
0.1478972601877955,-0.6393781520377735,0.210942118793107,0.0019141622045772,-0.0011322287532892,-0.0010420946709926,7.466934912537307e-07,6.51035591380448e-08,-1.8246298765581276e-06,11793,-2.804153,4.733394,11.812556
0.5861538067214649,-0.5866973671739597,0.1790684855790462,0.0019752499624175,-0.0010341627790498,-0.0009845481073903,6.37346185353226e-07,6.169175048651288e-08,-1.4619376639382862e-06,11794,-2.578774,4.546379,11.629572
0.76194012569087,-0.5473761767590326,0.1523873693962116,0.0019904044256236,-0.0009124833570739,-0.0009794321531605,5.653821686646371e-07,4.5851249145350035e-08,-9.917348230246152e-07,11795,-2.380103,4.406896,11.473043
0.7505344696989299,-0.499632857858513,0.1262451817975345,0.0019618080144191,-0.000768722912934,-0.0010209012122816,6.01076488790923e-07,2.4606542154604347e-08,-5.313884580511189e-07,11796,-2.202514,4.387864,11.38825
0.7081497576186582,-0.4786713887644626,0.0926089712005561,0.0018960217946994,-0.0006076813760121,-0.0010882995555193,7.29350013254558e-07,7.819632813533393e-09,-1.6028393252869126e-07,11797,-2.043781,4.490984,11.365699
0.6825738283689857,-0.366924265750512,0.0848421905934893,0.0018011357841809,-0.0004348709755121,-0.0011713238476736,8.864921922378661e-07,3.168390624710017e-09,3.250780264491774e-08,11798,-1.901009,4.656518,11.354401
0.6524281856319221,-0.0849195583490724,0.1022089459356826,0.0016948884577498,-0.0002579602081811,-0.0012696456005042,1.04806577400765e-06,1.0906627361591941e-08,3.3820094157612514e-08,11799,-1.784291,4.822582,11.342926
0.6231620804128492,0.1777592327857266,0.1035864181909045,0.0015948915028,-8.895016317155013e-05,-0.0013726654140845,1.205273033370455e-06,2.571063090730029e-08,-3.7226350419464246e-08,11800,-1.709132,4.923248,11.367796
0.594842839862121,0.2696993591339147,0.0721449269638352,0.0015215620487675,5.48409907979128e-05,-0.0014640307334594,1.3364033152470684e-06,4.038281098651285e-08,-5.9510978117585116e-08,11801,-1.671111,4.922606,11.430288
0.5616281769983187,0.3210454068995006,0.0329408547418954,0.0014848940171465,0.0001650494868795,-0.0015351381303338,1.418179476659528e-06,4.9847575108068445e-08,-1.1311811865998314e-08,11802,-1.622176,4.836083,11.475735
0.5362599402368787,0.4628291227299768,0.0140885334004615,0.0014816476514782,0.0002427630468958,-0.0015833677818546,1.4438738430872151e-06,5.2779886217944175e-08,1.267643427158902e-07,11803,-1.54495,4.742168,11.464143
0.5170481731720007,0.612737670910223,-0.0062918891193036,0.0015032426343203,0.0002910308134171,-0.0016083895646279,1.4628384196688993e-06,4.527898356864211e-08,4.444209715508091e-07,11804,-1.437407,4.752883,11.451297
0.4714403283107198,0.7578165577185854,-0.079331977702047,0.0015293398998702,0.0003196492339432,-0.0016157667540547,1.5617517326599258e-06,2.3914152322409552e-08,9.689754047903155e-07,11805,-1.278458,4.805743,11.494038
0.2693479550790394,0.9952157828387136,-0.3330353871496253,0.0015347654933378,0.0003358993567588,-0.0016031498266384,1.7901510987741467e-06,-7.671924298021126e-10,1.5917274159669918e-06,11806,-1.153694,4.870221,11.693574
-0.203038392632146,1.2143086458885006,-0.8751487350924756,0.0014868756466071,0.0003447043962059,-0.0015596321872577,2.1425363062652886e-06,-1.036812323360718e-08,2.1902241251937723e-06,11807,-0.927192,4.80278,11.870017
-0.7228240107816781,1.220132038176519,-1.449812559243702,0.0013322079675326,0.00035820054437,-0.0014748679347328,2.589664968491752e-06,1.977714489421378e-09,2.7100343285871263e-06,11808,-0.562394,4.931293,11.90249
-0.9268106742972696,1.111373357171965,-1.6577230900151554,0.0009922891590521,0.0003948903899739,-0.0013349898103937,3.100250640883e-06,3.106296679124612e-08,3.11011127919987e-06,11809,-0.125706,5.142698,11.772597
-0.8346197972714435,1.0231591773275506,-1.5303006247088964,0.0004540496454848,0.0004628610752469,-0.0011327821781494,3.64236436475686e-06,6.954316898632969e-08,3.325989868560027e-06,11810,0.171473,5.272823,11.66379
-0.7265340361539105,0.7673859043246427,-1.3850038400078093,-0.0002235474597529,0.0005600225891177,-0.0008692582888447,4.167393057545976e-06,1.113111130598915e-07,3.2974670246849337e-06,11811,0.233926,5.342457,11.646194
-0.6773085957912166,0.3683987946917467,-1.331875945817674,-0.0009496599955347,0.0006814265554449,-0.0005462408562242,4.616920087109622e-06,1.526794546860176e-07,2.970208282257657e-06,11812,0.058254,5.42852,11.67831
-0.6114700754012705,0.1598013844864556,-1.2280118023767506,-0.0015650577113332,0.0008138954512333,-0.0001701863394476,4.96913679484517e-06,1.9232344180542717e-07,2.337187991272873e-06,11813,-0.329307,5.525932,11.730502
-0.5431695466695322,-0.0132161824092786,-0.9155159932450848,-0.0019932170702723,0.000947964985655,0.0002510671316695,5.219673826020382e-06,2.294555169157067e-07,1.5058056573707232e-06,11814,-0.879647,5.569052,11.815569
-0.4345118596306143,-0.4948461231232705,-0.4640647095893713,-0.0022467818067129,0.0010776087220732,0.000707845577314,5.3201659958731486e-06,2.6138257377832814e-07,6.232360665822263e-07,11815,-1.484796,5.487736,11.959701
-0.1394077946361699,-0.9850831029197822,-0.1679594369207882,-0.0023244774406533,0.0011888287105588,0.001182323943207,5.226963620951558e-06,2.827085526352196e-07,-1.7814237594799328e-07,11816,-2.01673,5.259104,12.156525
0.3094166576548941,-1.0763287207975554,-0.130434231070574,-0.0022539182813719,0.0012610243582406,0.0016473078318513,4.982377215308254e-06,2.8569080617623375e-07,-7.191780631117105e-07,11817,-2.410065,4.95988,12.400822
0.6427364135771507,-0.9466473119962212,-0.1539759246460384,-0.0020567307639328,0.0012838551173986,0.002096912622307,4.7032867760913015e-06,2.6525341186839534e-07,-8.696860846941859e-07,11818,-2.668033,4.664782,12.676942
0.711476849426968,-0.8800934109369625,-0.1332680879497534,-0.001742683372881,0.0012567302763782,0.0025482484129883,4.488548652497771e-06,2.323030009818028e-07,-7.250275707752255e-07,11819,-2.82185,4.437,12.939444
0.652778812692089,-0.8464077282344804,-0.1120871963366963,-0.0013651929779285,0.0011816701324681,0.003027474551106,4.341056041881811e-06,2.0923279427721067e-07,-5.162441490178056e-07,11820,-2.907854,4.290741,13.172323
0.6159667541518326,-0.7422377061783494,-0.1196856662040287,-0.0010191066389805,0.0010685177030038,0.0035815027346554,4.200169376645661e-06,2.0345684026494518e-07,-3.658302952254978e-07,11821,-2.96871,4.206398,13.391904
0.6079145498218971,-0.5559349095038839,-0.1732347122706169,-0.0007475149217907,0.0009221513215934,0.0042151486022325,3.967579490561957e-06,2.0147004177904162e-07,-2.876714235636805e-07,11822,-3.012255,4.082779,13.614265
0.6050169552184624,-0.3211106726660063,-0.2318169978737915,-0.0005461200395645,0.000742448674397,0.0048855533066402,3.509949882803807e-06,1.8983233611059625e-07,-3.411470783434972e-07,11823,-3.03365,3.739473,13.835039
0.6104058569572258,-0.0472775843523393,-0.2284427258081897,-0.0004083305895129,0.0005355270837331,0.0055380529585403,2.769661125427693e-06,1.6720591515989285e-07,-5.394296641739917e-07,11824,-3.033104,3.027384,14.052234
0.6470621264816109,0.2255489726169625,-0.1873877261442792,-0.0003001507633578,0.0003115789796591,0.0060828465296601,1.8477423776151816e-06,1.360009417500815e-07,-7.240845669464844e-07,11825,-3.020781,2.027408,14.238955
0.7056431993820913,0.3635717989531197,-0.1581745691875651,-0.0002118457825422,7.588447641089957e-05,0.0064795272389747,9.376964889683054e-07,9.924131391522865e-08,-7.574905663809996e-07,11826,-3.041063,0.949811,14.416093
0.7132340160360191,0.3236931279992389,-0.1320303352224849,-0.0001614738252048,-0.0001701391251891,0.0067434720124583,1.945631008498873e-07,6.834340608644127e-08,-6.96548604882805e-07,11827,-3.072714,-0.027815,14.586316
0.6560807593444822,0.2693356863566199,-0.1003316930568307,-0.0001494789129909,-0.000425801794638,0.006887807921129,-3.728539704201084e-07,5.2161873128464686e-08,-6.530140965267345e-07,11828,-3.096282,-0.800092,14.712591
0.6057308442682775,0.3818039643023705,-0.012660691648809,-0.0001707791203475,-0.0006934031217864,0.0069499719467804,-8.907319242942912e-07,3.984027228450603e-08,-6.44291569620006e-07,11829,-3.08714,-1.5228,14.634401
0.5680289937921978,0.6475180056623757,0.2646206925893967,-0.0002152308639423,-0.0009695051050496,0.006946892228885,-1.4690999938532713e-06,1.7576798721239165e-08,-6.801936227417713e-07,11830,-3.167508,-2.248222,14.457322
0.54883204096056,0.8624652522081881,0.692735678579121,-0.0002605365297611,-0.0012441315658433,0.0068698375282948,-2.0846255980643896e-06,-1.018410372943594e-08,-8.438525936392496e-07,11831,-3.393846,-3.099964,14.368431
0.6595813502381249,0.8874075705987727,0.9834758620145608,-0.0002775048527124,-0.0015060974045648,0.006728612438249,-2.6440441519988384e-06,-3.380255700332243e-08,-1.163248577515194e-06,11832,-3.728241,-3.98895,14.459643
0.88436857962834,0.7644761351494221,0.9981831145380042,-0.0002252632957774,-0.0017398734525583,0.0065408019720357,-3.0915682776783813e-06,-5.1326690932883364e-08,-1.50806168252434e-06,11833,-3.921569,-4.860533,14.563979
0.998702575798673,0.4857319424249054,0.9068895374636023,-9.196599180626326e-05,-0.0019367298939102,0.0063129842855588,-3.4119318688465403e-06,-6.307628113592093e-08,-1.6942492089580076e-06,11834,-3.876804,-5.563844,14.450626
0.9259325277810604,0.0931833835407221,0.8530707724899306,0.0001010225123264,-0.0020957751472118,0.0060449178148859,-3.6259830131629096e-06,-6.84156348453959e-08,-1.646036042720567e-06,11835,-3.713129,-6.298123,14.22882
0.8581557022798535,-0.1427472434697535,0.8085527821136733,0.0003201425962595,-0.0022164361267864,0.0057307886777726,-3.82784333856952e-06,-6.691079148317629e-08,-1.4319915253009526e-06,11836,-3.509178,-6.983082,13.978597
0.892612290088888,-0.272578299654609,0.7493657235826006,0.0005031152686264,-0.00230219803882,0.0053544652779803,-4.135397137712681e-06,-6.597955979586408e-08,-1.128716731856683e-06,11837,-3.310114,-7.633171,13.809986
0.9089588174901284,-0.6953973701016511,0.6731378430214181,0.0006232482827366,-0.0023551788595515,0.0049092275035433,-4.5548032479608255e-06,-7.589861103062801e-08,-7.377922016650431e-07,11838,-3.100915,-8.325306,13.720407
0.9019286316888502,-1.2681592332110492,0.5549756706186966,0.00069276933259,-0.0023759143347226,0.0043974359659412,-4.962485719064056e-06,-8.994217479137974e-08,-3.106196087424424e-07,11839,-2.878581,-9.089254,13.653831
1.0709476871512298,-1.471867351736174,0.4261835754115972,0.0007183148339779,-0.0023697535553567,0.0038168830929188,-5.250462288772159e-06,-9.636031142939385e-08,3.0412004656984545e-08,11840,-2.625141,-9.882719,13.543049
1.446969231299167,-1.3309207901218352,0.3504865136752794,0.0007195051301915,-0.0023463569302334,0.0031651378086856,-5.409789142442891e-06,-9.83983012961119e-08,2.449860609728183e-07,11841,-2.385833,-10.586673,13.396081
1.7298058074598122,-1.1930578449578255,0.3293062104411692,0.0007040433115029,-0.0023096720332113,0.0024502515740086,-5.453059560227606e-06,-1.0140314853006829e-07,3.941301195662075e-07,11842,-2.184858,-11.106676,13.255024
1.6978239556876331,-1.1253572973938553,0.3126349474415975,0.0006633729698077,-0.0022583665162566,0.0016914120586835,-5.344601604800021e-06,-1.0206232410307884e-07,5.472088202237912e-07,11843,-1.991383,-11.442655,13.116896
1.4951274727444743,-1.0579054843595803,0.2819950666901429,0.0005995005778366,-0.0021904601364582,0.0009190637729523,-5.032236408286888e-06,-9.412282986566312e-08,7.106467205087234e-07,11844,-1.846423,-11.583985,12.97526
1.3385958182964008,-0.8967351180607261,0.2687570092058722,0.0005184116950188,-0.0021005059526164,0.0001809648677349,-4.516903155869313e-06,-7.828331734564137e-08,8.191138412040988e-07,11845,-1.778895,-11.531028,12.832148
1.2482882847605357,-0.5609198001927918,0.2771413857807185,0.000430796012017,-0.0019873288344358,-0.0004930130503713,-3.888749332115026e-06,-6.530944475156335e-08,8.386037477208324e-07,11846,-1.762585,-11.380118,12.69762
1.1404791624262076,-0.222666790681285,0.2679559192354682,0.0003567949719521,-0.0018546053682065,-0.0010908062736114,-3.262314958121889e-06,-6.424178984000558e-08,8.294682787502298e-07,11847,-1.819008,-11.191047,12.641069
0.968707680101876,0.0273551693986523,0.2387261720261809,0.0003231523150609,-0.0017050480682417,-0.0015951140541533,-2.6838445272416592e-06,-7.639217998654512e-08,8.336240320752636e-07,11848,-1.870165,-10.995853,12.611394
0.7443711786120637,0.4100617431318295,0.2094347800328301,0.0003672093166807,-0.0015426427504317,-0.0019921635868156,-2.1428488284697096e-06,-9.365048778191977e-08,7.767266665858525e-07,11849,-1.886986,-10.786318,12.512053
0.5204929615854029,0.8610493298037345,0.1815580083218168,0.0004939723266961,-0.0013649476338164,-0.0022701146437356,-1.6241630494797395e-06,-9.98413666192576e-08,6.168377544430221e-07,11850,-1.888775,-10.548633,12.3373
0.3766625239351002,1.0520666970927397,0.1722369210154246,0.0006713671091132,-0.0011614329838128,-0.0024178417130946,-1.102263973483484e-06,-8.925635785580437e-08,5.145782980923695e-07,11851,-1.855396,-10.344753,12.156291
0.2332350682826491,1.0354978282851943,0.0298253434908904,0.0008503539555747,-0.0009177176481729,-0.0024333664961108,-5.352964213835117e-07,-6.748433054064771e-08,6.374269477764867e-07,11852,-1.790639,-10.090584,12.060589
-0.1696056968172278,1.0397574009038553,-0.5027346129648609,0.0009463919973293,-0.0006116843361373,-0.0023250448134757,7.104191711125677e-08,-3.445068533378677e-08,9.208421008152164e-07,11853,-1.543364,-9.965756,11.921809
-0.7723973123105856,1.028772316616919,-1.1860651230436243,0.0009218772912353,-0.0002427202344513,-0.0021099746976497,6.382038874395781e-07,5.933674560166409e-09,1.2624355985481698e-06,11854,-1.15482,-9.721002,11.759608
-1.1419640029853249,0.9518824270911288,-1.4660001438615025,0.0007902696066589,0.0001650824088107,-0.0018189241684983,1.0875317592135572e-06,3.339382868985184e-08,1.698696919317147e-06,11855,-0.7561,-9.494825,11.635341
-1.151068360883539,0.8776824639521186,-1.3325104016000062,0.0005617074379784,0.0005775293696082,-0.0015034552616001,1.3828538722479002e-06,3.2154691261908745e-08,2.17671883800881e-06,11856,-0.517612,-9.373707,11.684482
-1.0891202572927976,0.7896179602126316,-1.191499309694415,0.0002676732965035,0.0009380785347598,-0.001242714350186,1.516993743277534e-06,1.3581917260334971e-08,2.468303299496053e-06,11857,-0.487488,-9.283272,11.894334
-1.0978260103859585,0.6652418782441318,-1.1515068509064186,-6.372980489714839e-05,0.0012206516035625,-0.0010741020529187,1.50296209190567e-06,-8.690841943045163e-10,2.4351199835605257e-06,11858,-0.63476,-9.217142,12.176196
-1.0852873738102236,0.4924875116417806,-1.0301584455640271,-0.0004096305810472,0.0014326361145465,-0.0009912785994822,1.3955294818708284e-06,-7.349597612365889e-09,2.132487687820092e-06,11859,-0.92898,-9.163085,12.479253
-1.042709849344083,0.0840088716216138,-0.7447729395741909,-0.0007164600849441,0.0015800127801554,-0.0009826668301313,1.2731258623133392e-06,-8.461428517939636e-09,1.6612937212805713e-06,11860,-1.289218,-9.129587,12.758055
-1.002751722608585,-0.6222044916395775,-0.4199481743230168,-0.0009005277840758,0.0016834949424611,-0.0010094420568627,1.154633317818187e-06,1.4036934705293132e-09,1.1199578726228656e-06,11861,-1.646242,-9.125973,13.012668
-0.9183887025070784,-1.2287983945499985,-0.2436786300154838,-0.0009334762463947,0.0017498574792719,-0.0010504880122022,1.0183544206413836e-06,1.7079563215646258e-08,6.600250608010292e-07,11862,-1.950698,-9.172846,13.277145
-0.7669820771431435,-1.3754091189511195,-0.2184055763927408,-0.0008432564848932,0.0017685743586589,-0.0011041427487572,8.570372189819355e-07,1.9508841761594764e-08,3.796540962855266e-07,11863,-2.187997,-9.247451,13.568147
-0.6133585831873194,-1.2295570598056291,-0.2019214049345781,-0.0006759819031512,0.0017389027516642,-0.0011458539894397,6.497808558748294e-07,3.5157709040909152e-09,2.1528199321113086e-07,11864,-2.372598,-9.300908,13.88163
-0.5358568947689464,-1.111960702450612,-0.1688456703053766,-0.0005251116567898,0.001662485212307,-0.0011363339443898,3.85300270922572e-07,-1.8444188208937385e-08,1.003335651060291e-07,11865,-2.507548,-9.309682,14.172386
-0.5205288719684634,-1.0548025088914867,-0.1543852320917038,-0.000429455405036,0.0015395709151062,-0.0010589693371045,1.0605348591323476e-07,-3.846113183190433e-08,7.425804091180578e-08,11866,-2.633427,-9.244324,14.453599
-0.5115922203090453,-0.9431838642500022,-0.1378902315888547,-0.0003682896761117,0.0013721709931608,-0.0009168028591593,-1.1556783096014493e-07,-5.649900549015824e-08,1.4291782865330309e-07,11867,-2.742573,-9.134595,14.737101
-0.5093782944115346,-0.7083139261409304,-0.1223191806652562,-0.0003343059472243,0.0011609483352925,-0.0007204114026283,-2.533027797656469e-07,-6.949129626258327e-08,2.179468991447816e-07,11868,-2.806545,-9.031575,14.99486
-0.5142265041706848,-0.30775780786541,-0.1399027642892044,-0.000305475920195,0.0009052845900664,-0.000499003983667,-3.639904395881355e-07,-7.742753402949141e-08,2.569204995958658e-07,11869,-2.811169,-8.988933,15.199112
-0.4918335228792375,0.1785742746604104,-0.1711432878655704,-0.0002801322865386,0.0006116113629232,-0.0002688961777266,-4.725049536400053e-07,-8.77408967187263e-08,3.151998545521335e-07,11870,-2.772965,-8.991825,15.319473
-0.4491660368624045,0.5179271551911406,-0.1759350642038429,-0.0002856680407414,0.0002941320877212,-3.3771466835758675e-05,-5.080702032986643e-07,-9.650688774790675e-08,3.694955642124706e-07,11871,-2.720005,-9.019096,15.349302
-0.4435266905318192,0.5882914935277912,-0.151503615533416,-0.0003415004589123,-2.755969200930221e-05,0.0001894010880397,-4.445317153930147e-07,-9.013813864182494e-08,2.883308304927894e-07,11872,-2.660052,-9.06198,15.343632
-0.4857142076750605,0.5208416394972933,-0.1069237378182198,-0.0004711815365356,-0.0003245111746253,0.0003760300792804,-3.9275782503036907e-07,-7.375441548211324e-08,6.968627249299754e-08,11873,-2.594316,-9.099463,15.380994
-0.5187391141641402,0.4769496115758911,-0.102404315467752,-0.0006709710442548,-0.0005840776132146,0.0005131504405531,-4.798050898972713e-07,-6.209847966193815e-08,-1.7053115173953957e-07,11874,-2.481271,-9.212411,15.343265
-0.5044160020009943,0.4785240737295089,-0.0984680057408557,-0.0009010263060667,-0.0008115153320741,0.000597449517886,-6.932157690580405e-07,-5.1287319930044857e-08,-4.269985859701544e-07,11875,-2.515875,-9.396015,15.197591
-0.474004846328936,0.533006365940236,0.200774378982507,-0.0011048736605956,-0.0010153848287601,0.0006298499595253,-9.301579506491424e-07,-3.5683019720195566e-08,-7.496957273124479e-07,11876,-2.727701,-9.84184,15.126046
-0.5063982769128587,0.6246173794234888,0.8200027113379487,-0.0011923479021964,-0.0012164060421866,0.0006211248548758,-1.1253416723819943e-06,-2.7326409700685232e-08,-1.0845031128106417e-06,11877,-3.096991,-10.140267,15.170649
-0.6531376192912423,0.6109062798523975,1.2533370490350535,-0.0011287545232615,-0.0014176208583218,0.0005782775668466,-1.2097335432434668e-06,-3.023648508262206e-08,-1.3434832538283398e-06,11878,-3.486334,-10.175978,15.26891
-0.8431214348583999,0.4515891817416238,1.2456563451023013,-0.0009411934176293,-0.001601861040392,0.0005054201739101,-1.0751383010600053e-06,-2.898481221564768e-08,-1.5191435079012555e-06,11879,-3.661666,-9.971432,15.127508
-0.9302214229222192,0.3011217644256732,1.1074042070474248,-0.0006640841966238,-0.0017524768749214,0.0004165104892986,-7.090971424785945e-07,-1.962278550002613e-08,-1.643683291573213e-06,11880,-3.649384,-9.727855,14.764544
-0.900501564797976,0.1685375571685957,1.0477681826758132,-0.0003693446558741,-0.0018437747748218,0.0003342460861676,-2.598307931024532e-07,-1.6937399218417434e-08,-1.710299238281364e-06,11881,-3.529572,-9.604084,14.317666
-0.8477230063155915,-0.0602417720148989,0.9889775870176504,-9.2956980015218e-05,-0.00186409902777,0.0002664816166423,1.2132855183320273e-07,-2.419723099500973e-08,-1.7009435753087273e-06,11882,-3.410331,-9.549712,13.964297
-0.7613104867367775,-0.3024751730540087,0.907283038895859,0.0001700875166558,-0.0018189731399955,0.0002063948980781,4.0446615838245524e-07,-2.8275290829112923e-08,-1.6172308638783268e-06,11883,-3.257853,-9.53577,13.74444
-0.6222861437462044,-0.4891081368552844,0.7958945983262049,0.0004043203433608,-0.0017132800769051,0.0001427996699037,5.878765221604222e-07,-2.5018469536267107e-08,-1.4720499465521685e-06,11884,-3.055024,-9.574978,13.623054
-0.4744601178819472,-0.7085110098229463,0.6311995760054518,0.0005922103694362,-0.001559153759223,5.243266776194019e-05,6.470853175418213e-07,-2.0718579372226852e-08,-1.3291551009244766e-06,11885,-2.824179,-9.715623,13.503686
-0.2531540729619137,-0.9035886932954116,0.4815648723309277,0.0007277560366815,-0.0013666548826845,-6.981265036568377e-05,6.27349075482806e-07,-1.6626349794358392e-08,-1.229460266366223e-06,11886,-2.60435,-9.921542,13.341786
0.0604153568973516,-0.9251287456191316,0.4046956130010566,0.0008118505472098,-0.0011429550445941,-0.0002087480627089,6.338177278185754e-07,-1.5070553159449895e-08,-1.0797283425467525e-06,11887,-2.426919,-10.116353,13.145394
0.2668573386165867,-0.8184885031724367,0.3783803343748195,0.0008608739068172,-0.0009046451573375,-0.0003486808068713,7.304317923062395e-07,-2.2139534016398825e-08,-8.189644191417611e-07,11888,-2.295189,-10.220909,12.979783
0.2678799893593772,-0.7588173786137155,0.353378544587428,0.0009121312283177,-0.0006769308082839,-0.000463689614531,9.102714860314242e-07,-3.558576789618961e-08,-5.387101056940302e-07,11889,-2.18906,-10.206914,12.885012
0.215456002138857,-0.7372183345877436,0.3172539563378775,0.0009775002157158,-0.0004723406346675,-0.0005416811823789,1.1405655159727522e-06,-4.90246335398059e-08,-3.008728256858436e-07,11890,-2.095158,-10.08586,12.834918
0.2203043932712004,-0.5570248803869716,0.2973424372776607,0.0010438326733449,-0.0002912932828076,-0.0005871332974551,1.3823299033676483e-06,-5.608356896325425e-08,-1.0278530817755745e-07,11891,-2.006194,-9.91002,12.793263
0.2606835967185335,-0.2476206649197416,0.2950063020521113,0.0010998213170469,-0.0001317471179264,-0.0006022864530098,1.544116859377038e-06,-4.676415852220424e-08,-1.1307540016397665e-08,11892,-1.937674,-9.78458,12.801889
0.2880048698018382,-0.0168188311456657,0.2819890176929259,0.0011234361257488,1.7204439321400215e-05,-0.0005947461375382,1.5500630464121025e-06,-2.1398563403470173e-08,-5.693811616157627e-08,11893,-1.901175,-9.713917,12.910025
0.2581630441720354,0.1805753041486155,0.2445688842213606,0.0011113635895346,0.0001601025533143,-0.0005693476001506,1.4687143018464903e-06,1.3416043526367014e-09,-8.315362145972842e-08,11894,-1.837374,-9.689416,13.047025
0.1938764143136268,0.4263271602587351,0.2110525245246753,0.001083287185629,0.0002947677819553,-0.0005267076986605,1.3960795801588065e-06,5.194250518947519e-09,5.273314015088969e-08,11895,-1.762624,-9.660421,13.151496
0.1420661566853257,0.5707231070721601,0.1904369777724452,0.001059840831823,0.0004255592298844,-0.0004738916490157,1.2871391026196278e-06,-5.7854417481803875e-09,2.483921546632879e-07,11896,-1.703658,-9.550817,13.213413
0.0996730200902027,0.6344470194878707,0.1290574687219907,0.0010731878521326,0.0005604394371603,-0.0004229514809053,1.0728500416326763e-06,-1.9347857759611828e-08,3.930940130293684e-07,11897,-1.622372,-9.396436,13.291417
0.0516021778010469,0.8110842760957689,-0.0336514941847204,0.0011245820816603,0.0007021384045389,-0.0003790280988301,8.297697708687203e-07,-3.2470605150563895e-08,5.868792783322305e-07,11898,-1.610185,-9.394042,13.530423
-0.0325103176095742,1.019127776246319,-0.3750443700157294,0.0011781209148389,0.0008492587996932,-0.0003411684870608,6.689716373747971e-07,-4.275377024625917e-08,8.732087588915569e-07,11899,-1.557535,-9.652368,13.781509
-0.1518448418333137,1.1271580950471685,-0.8721234948873143,0.0011856933192039,0.0009985359001361,-0.0003070109619165,5.617705351127052e-07,-4.1111477948506144e-08,1.151902530502965e-06,11900,-1.379588,-9.84858,13.939435
-0.2558269803851033,1.157313696631147,-1.2651819213000068,0.0010690465429769,0.0011423735825013,-0.0002694357015409,4.648815607515316e-07,-2.7685753076637544e-08,1.4379162785871e-06,11901,-1.028444,-9.893188,13.949743
-0.3506405139542966,1.0106656697202223,-1.343512546571819,0.0008054368094813,0.0012756473900782,-0.0002256892096573,4.6725440631101043e-07,-1.446903399051904e-08,1.80576056212546e-06,11902,-0.684909,-9.821091,13.994726
-0.4534573697790396,0.6589891081889494,-1.2196428992798982,0.0004352111197012,0.0013954633720463,-0.0001777018414149,6.081076976386758e-07,-6.833619576096251e-09,2.1452066167816645e-06,11903,-0.514146,-9.688285,14.180734
-0.4893065922241987,0.3007900347182592,-1.130825842130601,1.0006137888683663e-05,0.0014953892195186,-0.0001248615176416,7.557258027427607e-07,5.203065322028698e-10,2.245563655382166e-06,11904,-0.540009,-9.521325,14.417224
-0.4001641067633285,0.0331192356122363,-1.097905183891057,-0.0003765757051859,0.0015664265327987,-6.614519840062664e-05,8.046432645641089e-07,1.1443191209250728e-08,2.048462930081124e-06,11905,-0.791441,-9.290232,14.619483
-0.2470596391866701,-0.2305995226671497,-0.923142464899458,-0.0006782639414881,0.00160358580288,-5.2259346715696656e-06,7.714173793319541e-07,2.032860974097769e-08,1.6579453585928511e-06,11906,-1.201675,-9.075027,14.808009
-0.1301581155978185,-0.5611825580974276,-0.555455064339941,-0.0009023191533357,0.0016055524249111,4.942865537881067e-05,6.589593662164277e-07,1.7539522169320566e-08,1.192744548418242e-06,11907,-1.655121,-8.996603,14.997973
-0.0910435552362022,-0.8575680314368218,-0.2439293244999669,-0.0010410561938795,0.0015721847479978,8.45754306094657e-05,4.2826686719914e-07,5.473030152913193e-09,7.297137545481034e-07,11908,-2.056828,-9.072304,15.21336
-0.0881337350496971,-0.9590337854649792,-0.1686409165824595,-0.0010966502377698,0.0015065227570755,7.955053911346284e-05,1.0078898019332453e-07,-1.5415321639847706e-09,2.861529556681887e-07,11909,-2.384081,-9.22366,15.42691
-0.0750927473850624,-0.8832522762224555,-0.1943332180106557,-0.0010759721042972,0.0014093813039245,3.043013328551746e-05,-2.273720968195444e-07,5.309904045472556e-09,-1.370484882648912e-07,11910,-2.643935,-9.294419,15.652845
-0.0588261582261055,-0.8017765146768534,-0.1797447989567404,-0.0009863776740883,0.0012793395787958,-4.816032976566348e-05,-4.584679748390454e-07,2.409832090242817e-08,-4.5898052996598555e-07,11911,-2.825069,-9.213901,15.85433
-0.0210014613686329,-0.7754349063738869,-0.1594580917417455,-0.0008604243982586,0.0011172725781026,-0.0001351763113108,-5.380961651805164e-07,4.562020639948845e-08,-5.953341564707474e-07,11912,-2.935725,-8.994245,16.017387
0.0737026269997508,-0.6589803422738375,-0.1558142801557357,-0.0007584675951675,0.0009253570173377,-0.0001938910511198,-4.6703066141798845e-07,5.947941217119422e-08,-6.005804403099757e-07,11913,-3.026494,-8.68363,16.134238
0.1895296227224339,-0.3788361045021239,-0.1657160724991496,-0.0007047118918234,0.0007089956687391,-0.0002097512670353,-3.112380794406577e-07,6.440422845560013e-08,-5.856980235581328e-07,11914,-3.109815,-8.363689,16.19554
0.2482698743330901,-0.0558853731259691,-0.2087690120328151,-0.0006885590164099,0.000478224241732,-0.0001928282636802,-1.4467381173144733e-07,6.754256177859158e-08,-5.447481069155659e-07,11915,-3.179413,-8.118248,16.189203
0.2353467757292999,0.1742680250223985,-0.2562190774776767,-0.0006979585696934,0.0002473230810106,-0.000152749796308,-1.9876460100444528e-09,7.349855383080907e-08,-4.018294063172714e-07,11916,-3.219723,-8.01175,16.113398
0.2342491297904862,0.2842050847671817,-0.2570649525097859,-0.0007014557907879,3.702555442868259e-05,-0.0001105360367754,6.894549565375057e-08,8.0974868883541e-08,-2.1639243458796886e-07,11917,-3.240924,-8.009873,15.999195
0.2860130262143406,0.3319744222186001,-0.2239564721577153,-0.0006899852161743,-0.0001432208535168,-7.797255197450625e-05,3.092260752920437e-08,9.089873576228054e-08,-1.517322234899956e-07,11918,-3.254545,-8.083851,15.899146
0.3422149765570076,0.3405355285038072,-0.1929270383889981,-0.0006806492397644,-0.0002962549197968,-5.551011086413989e-05,-8.425574453118494e-08,1.0634802771978605e-07,-2.2152925229866825e-07,11919,-3.25992,-8.188873,15.837295
0.35831972668349,0.3141728112036125,-0.1616643912478787,-0.0006829605120892,-0.0004273690655856,-5.239921735393812e-05,-2.456647529634719e-07,1.2039586430825982e-07,-3.242727761276151e-07,11920,-3.292484,-8.295992,15.826999
0.3196628117301979,0.3290088111086578,-0.1533514035750089,-0.0007106601538959,-0.0005504327648686,-8.19323402975412e-05,-4.791979579334306e-07,1.2043092971765534e-07,-4.922995643125035e-07,11921,-3.317511,-8.512217,15.742556
0.317733411493855,0.4336749307965085,-0.0481715708830254,-0.0007558617794308,-0.00067386858488,-0.0001468942258661,-8.012561544230809e-07,1.0838428590926627e-07,-8.490634361458404e-07,11922,-3.459917,-8.639514,15.618401
0.3382101827367054,0.5421667259931301,0.430152567648236,-0.0007819162390579,-0.0008003481302336,-0.0002404538294576,-1.1302142787293942e-06,9.89268476249031e-08,-1.362282306459279e-06,11923,-3.7937,-8.900441,15.627923
0.0625976998293182,0.5582528442611777,1.1016741725607258,-0.0007407596052826,-0.0009395834944587,-0.0003486317852262,-1.3222264606425322e-06,9.697803465783694e-08,-1.8149625293808983e-06,11924,-4.291266,-8.955971,15.748515
-0.5140695802481807,0.5163026819354892,1.4027007493865584,-0.0005595054128342,-0.0011058647778094,-0.0004448574477095,-1.294197295030451e-06,9.833332891463467e-08,-2.0708602077746325e-06,11925,-4.771786,-8.736959,15.866957
-0.8659629403627984,0.4774749004481526,1.2801576288530296,-0.0002228766530606,-0.0012982080490445,-0.0005153778818274,-1.0574768071710232e-06,1.0565222854970737e-07,-2.2018679136121863e-06,11926,-4.906375,-8.372003,15.652861
-0.801133263565023,0.3681546634800784,1.1420110658673217,0.0002183853704474,-0.0014995713967588,-0.0005593771376285,-6.743631963970505e-07,1.228333559687129e-07,-2.263578190039904e-06,11927,-4.817086,-8.082152,15.253184
-0.6695558034636017,0.0774806159112267,1.0964976453436337,0.0006924248943363,-0.0016827268884546,-0.0005717216368506,-2.3723063736995918e-07,1.4353779670660613e-07,-2.181314530524668e-06,11928,-4.606436,-7.885755,14.811495
-0.6360873101984513,-0.2824044191032336,0.9998788486406636,0.0010737711813786,-0.0018017943121474,-0.0005492246371553,1.348550848289955e-07,1.556909408571339e-07,-1.911975914790519e-06,11929,-4.353228,-7.745591,14.461749
-0.5869665680904148,-0.5158315056760592,0.8396325612396994,0.0013073778142874,-0.0018370844149029,-0.0004971154922596,3.2169920801966537e-07,1.5326347511890637e-07,-1.5184339769812332e-06,11930,-4.080902,-7.682251,14.225779
-0.4657827379848928,-0.6944605521834794,0.6280077501696533,0.0014163126564335,-0.0017970376812356,-0.0004293745702823,2.7270162681973373e-07,1.383203520430756e-07,-1.0605280377892907e-06,11931,-3.783596,-7.70225,14.029594
-0.2000326890249956,-0.918958342318562,0.385165294987212,0.0014165217157366,-0.0016903514007699,-0.0003725543963019,8.231399531875439e-08,1.1571927917997193e-07,-5.473723894074308e-07,11932,-3.457089,-7.757353,13.798183
0.1924682671871617,-1.0246586226459449,0.2130563584027074,0.0013541182837885,-0.0015397351145248,-0.0003707944806507,-6.874411507801739e-08,9.69445092422939e-08,-4.460978676661019e-08,11933,-3.136461,-7.833929,13.522815
0.4827337145629222,-0.9419005980294088,0.1517736847015331,0.0012527949958294,-0.0013559650029797,-0.0004369591451828,-8.01361505656422e-08,9.499204107688777e-08,3.112657363714235e-07,11934,-2.878621,-7.901141,13.278455
0.5531278720689746,-0.8544720578265665,0.1481292851266957,0.0011066938128329,-0.0011355241610459,-0.0005504575115177,3.721710334173329e-08,1.0637507139275798e-07,4.746896507747244e-07,11935,-2.69986,-7.891201,13.079379
0.5111907898333674,-0.8111024746799913,0.1370241068244361,0.0009374262649007,-0.0008848291337851,-0.0006830810713279,2.253113107789318e-07,1.1719914946677337e-07,5.334247544940316e-07,11936,-2.573677,-7.805181,12.895663
0.471430053407954,-0.7214885416706673,0.1099426338579442,0.0007823304170297,-0.0006141123682909,-0.000782229297021,3.840408910846398e-07,1.2127724093335792e-07,5.793769494155061e-07,11937,-2.491943,-7.66429,12.737131
0.4487525900201065,-0.5508128425376453,0.1159970747069525,0.0006584902561326,-0.000332517685292,-0.0008277155741722,4.223493393848842e-07,1.1633971032286057e-07,6.58476743250812e-07,11938,-2.45827,-7.516341,12.640403
0.4278776899010897,-0.2404062562674226,0.1628393759346359,0.0005681613002591,-5.129137164623502e-05,-0.0008358510448908,3.387967822280402e-07,9.692081540160193e-08,8.088231491171315e-07,11939,-2.459602,-7.418624,12.627461
0.4047296087911221,0.1240698776489231,0.1891507575157251,0.0005080190139671,0.000217220429908,-0.0008194260428178,2.185698904957169e-07,6.397313753049313e-08,1.0277331711109957e-06,11940,-2.489595,-7.38067,12.69029
0.3739895972956565,0.3027630341943138,0.1702063215899625,0.0004600863002449,0.000459232643287,-0.0008049647804537,1.5744419870788848e-07,3.2645004453834887e-08,1.2198873921124165e-06,11941,-2.546649,-7.291699,12.807367
0.3139546691628179,0.3060794346278623,0.1362827340361728,0.0004195135178,0.0006707131291491,-0.0008030218379861,1.5927441958290638e-07,1.6068841922224163e-08,1.3005783314079956e-06,11942,-2.571661,-7.138389,12.91688
0.1729444978944707,0.3503750567475228,0.1047124041311018,0.000394857284632,0.000859276575248,-0.0008036067941292,1.4536450422145944e-07,5.492352063251193e-09,1.3275445170500156e-06,11943,-2.576635,-6.918297,12.992076
-0.011676758392474,0.5404054668806633,0.110388644701662,0.0003871080340389,0.0010399648272661,-0.0008038154524354,6.402690605636313e-08,-1.4919941599786986e-08,1.401973677012848e-06,11944,-2.5404,-6.791856,13.045301
-0.1250246245408643,0.8559199833118094,0.051728048179112,0.0003958793333653,0.001241118617085,-0.0007989263559731,-7.805219663860969e-08,-4.473846402210819e-08,1.546362301951154e-06,11945,-2.591551,-6.822729,13.20876
-0.1891821730563767,1.1504675170899183,-0.3308782798689105,0.0004110007811908,0.0014759625935004,-0.0007868300486989,-2.3282438740404654e-07,-7.32700687041805e-08,1.7694812092556291e-06,11946,-2.527283,-7.051897,13.235066
-0.2905920429181852,1.2174311759189087,-0.9065449425383756,0.0004080202845988,0.0017419095159905,-0.0007711888360244,-3.378875530231799e-07,-9.263733921444717e-08,2.077839039154121e-06,11947,-2.272613,-7.100045,13.085341
-0.3951823496888745,1.1184575279017115,-1.1874168477568543,0.0003536920353499,0.0020396168580058,-0.00075265958081,-3.804633680236e-07,-1.023169949898736e-07,2.3952213475745103e-06,11948,-1.881048,-6.974089,12.880339
-0.4536352162960489,0.9949533440922712,-1.1088158907094496,0.0001994141856453,0.0023653178168017,-0.0007309204640456,-4.019235860609367e-07,-1.0767033971993897e-07,2.5975706305625102e-06,11949,-1.630074,-6.7916,12.92396
-0.48719443847255,0.6888612869116759,-0.994170692823537,-6.31064142166388e-05,0.0027095566696351,-0.0007065317548711,-4.477141062484192e-07,-1.1268157603081045e-07,2.6153604139643617e-06,11950,-1.588563,-6.619469,13.200415
-0.4821924149315593,0.2528523544064643,-0.949235639680588,-0.0003962331878679,0.0030570700824932,-0.000679893313921,-5.382516482882023e-07,-1.1958085085935082e-07,2.4492542812482104e-06,11951,-1.720544,-6.474,13.533234
-0.4098830774328578,0.0430634596203166,-0.9024544914252044,-0.0007441536552913,0.0033791919256311,-0.000651981801262,-6.584948743769288e-07,-1.333637416767009e-07,2.138087591941629e-06,11952,-1.974073,-6.287394,13.806519
-0.3126609215434767,-0.0748739589404703,-0.8026906055654437,-0.0010100209283026,0.0036302285007338,-0.000624515212572,-7.911076333489154e-07,-1.552246143533168e-07,1.722668573084709e-06,11953,-2.305787,-6.112908,14.046579
-0.2410737430444493,-0.4586054475942788,-0.5946668175524467,-0.0011544855396853,0.0037891887293117,-0.0005982504547773,-9.390785841855828e-07,-1.758279193562576e-07,1.2176494539746731e-06,11954,-2.673944,-6.031689,14.313693
-0.2028244616373118,-0.877679811738824,-0.3672043407616365,-0.0012015969515897,0.0038603526186288,-0.0005730494610551,-1.095871472979919e-06,-1.891145959884539e-07,6.740461177211967e-07,11955,-3.02482,-6.062559,14.619545
-0.1776671184346286,-0.963720824593013,-0.2741226239085231,-0.0011741492945479,0.0038504968045883,-0.0005487102603357,-1.248556734042988e-06,-2.0350496025673067e-07,1.960395922983486e-07,11956,-3.332002,-6.112746,14.940399
-0.1381886973678925,-0.8534429874685137,-0.2725105341653248,-0.0011242537878299,0.0037816684086245,-0.0005245051981771,-1.3766240456370246e-06,-2.2509621114970057e-07,-1.518488449022494e-07,11957,-3.562736,-6.081558,15.241306
-0.0733110903205925,-0.7927404373641448,-0.2590245662045413,-0.0010778270750024,0.0036644034790178,-0.0004998112722502,-1.4175682803670913e-06,-2.420369089731237e-07,-3.7721758469660573e-07,11958,-3.731991,-5.953964,15.501688
0.0070345139689691,-0.7597722962185216,-0.2331135986947179,-0.0010286956184994,0.0034963048101398,-0.0004741051007477,-1.3147427645921135e-06,-2.3796065498202613e-07,-5.340780339642685e-07,11959,-3.858892,-5.718589,15.723796
0.0746556475750766,-0.6649088696431144,-0.2157366850441016,-0.0009910409783336,0.0032863825625401,-0.0004461953226956,-1.105865086236116e-06,-2.14108840781088e-07,-6.591594772243573e-07,11960,-3.96309,-5.426254,15.914095
0.1141353871087562,-0.46927927214128,-0.2126525138381618,-0.0009856936567367,0.0030494923003692,-0.0004142395736547,-8.813273801840699e-07,-1.8549558843955705e-07,-7.399305206248491e-07,11961,-4.031846,-5.151469,16.042907
0.1394092957743978,-0.2065806719712286,-0.2196364713711791,-0.0010212489954731,0.0028027950313871,-0.0003776000209136,-6.704526008127356e-07,-1.621188495324897e-07,-7.53345891549273e-07,11962,-4.072809,-4.966677,16.088993
0.158367698750265,0.0278295837706885,-0.210542258081736,-0.0010986487825989,0.0025700566604267,-0.0003368690010982,-4.773704077791479e-07,-1.4850964961550117e-07,-6.796873311763259e-07,11963,-4.094617,-4.889783,16.063057
0.1636838364089919,0.1991834650709226,-0.1825439432047192,-0.0012096958848362,0.0023819933358255,-0.0002930403246577,-3.686863265201016e-07,-1.470490775103023e-07,-5.77244415230706e-07,11964,-4.115636,-4.846741,15.976473
0.1665936958233243,0.3091142779107986,-0.1558862324934228,-0.001331612827207,0.0022788992183074,-0.0002481471580624,-3.741841858593449e-07,-1.5145023041423186e-07,-5.891527903499973e-07,11965,-4.146781,-4.826223,15.849111
0.1762103362045768,0.3472804882592573,-0.1332029268911995,-0.0014471309597281,0.0022689667500342,-0.0002040885744174,-4.086258386373626e-07,-1.4979767386762173e-07,-7.737937295411652e-07,11966,-4.227303,-4.82875,15.755884
0.1730659302748504,0.3114861022817398,-0.1243692167044171,-0.0015421577212306,0.0023236964406997,-0.0001627397133459,-4.242223101997172e-07,-1.33948524676423e-07,-1.1089653300124257e-06,11967,-4.339066,-4.907836,15.714337
0.1854189217752199,0.2536814988672548,-0.0337486900592287,-0.0015891174111749,0.0023961029339202,-0.0001272888049434,-4.931927558725652e-07,-1.0488022789655487e-07,-1.5981407878857578e-06,11968,-4.512144,-4.97934,15.722271
0.2164190661511056,0.2996441381086461,0.3722452964055655,-0.001548344955546,0.0024022460116939,-0.0001022670950572,-6.428127831022515e-07,-7.345177140263158e-08,-2.1815206897014104e-06,11969,-4.787863,-5.112336,15.86887
0.1156843116179818,0.4358552673292536,1.0346306028913348,-0.0014019105366614,0.0023098541044373,-8.845116616218911e-05,-7.678368919241383e-07,-5.028870874423276e-08,-2.6793470867057748e-06,11970,-5.177346,-5.15972,16.15302
-0.1725533241994323,0.4749045451603225,1.4925396182892705,-0.0011537750753262,0.002142891879529,-8.25235150376615e-05,-7.847603048523754e-07,-3.6966152049307644e-08,-2.9369734541346944e-06,11971,-5.584465,-5.053195,16.460535
-0.435472863104634,0.326321689628419,1.5199694552291974,-0.0008150014385551,0.0019248558421928,-7.91523653125173e-05,-7.120760407431935e-07,-3.043330668202954e-08,-2.974497135996628e-06,11972,-5.765295,-4.857501,16.518648
-0.5019262176610533,0.0787049715220711,1.3688332793252105,-0.0004152092702217,0.001706089063578,-6.889724412302982e-05,-5.513642694752353e-07,-2.8037311799418917e-08,-2.91089790095862e-06,11973,-5.701893,-4.799072,16.307638
-0.4584101716783273,-0.1288381272292189,1.2682772883027726,2.1120920944437804e-05,0.0015123049723292,-4.87302867186812e-05,-2.806393664678525e-07,-2.898702532515168e-08,-2.760865393845295e-06,11974,-5.532415,-4.748551,16.006793
-0.4191410768438662,-0.251033827841738,1.193124159721223,0.0004732148351211,0.0013393472445103,-2.2680991202029156e-05,2.0322840622974288e-08,-3.3434886981838265e-08,-2.4539066982351904e-06,11975,-5.3428,-4.680568,15.746065
-0.3375726931617976,-0.333139636215492,1.083522859399897,0.0008994361547724,0.0012008095365074,4.639136650074246e-06,2.300789044722442e-07,-3.9107124211361535e-08,-2.006339089988468e-06,11976,-5.148684,-4.577718,15.572185
-0.1939583759472761,-0.4344866689205686,0.9016721283731922,0.0012383946374939,0.001115167964475,2.4596099794371124e-05,3.431519235132688e-07,-4.188679563633137e-08,-1.5375916637751442e-06,11977,-4.890393,-4.502193,15.432107
-0.0677693259654557,-0.5940065711254301,0.6046402497665383,0.0014602552812407,0.0010924340960136,3.399137159561617e-05,4.341368090328151e-07,-3.804147592265465e-08,-1.158905367006865e-06,11978,-4.563235,-4.538465,15.267513
0.106894531883145,-0.7698002349262952,0.2673185410543161,0.001566407422122,0.0011386039416484,3.59926213575684e-05,5.391172692945787e-07,-2.5364149802494323e-08,-9.056166414077306e-07,11979,-4.196496,-4.670697,15.049385
0.4588140515535811,-0.8510087407288354,0.0483389641172253,0.0015657947185166,0.0012524235513691,3.301808257837715e-05,6.618521525658255e-07,-4.952257545542726e-09,-7.581897895254104e-07,11980,-3.843046,-4.825838,14.773321
0.8164985736484511,-0.7940606310984634,-0.0075232820158121,0.0014912419331244,0.0014219152872075,2.968711677559448e-05,8.139124006966231e-07,1.7272610749337653e-08,-6.685880736727668e-07,11981,-3.547647,-4.928958,14.472809
0.9119254789328568,-0.7076683674551949,0.0050608367431621,0.0013632540604353,0.001640916841724,2.832067444428244e-05,9.919647924079569e-07,3.3287036831402844e-08,-5.672557751566916e-07,11982,-3.322823,-4.922109,14.187177
0.8250309267566045,-0.6713960238887666,-0.0069950735292735,0.0011902423661147,0.0019074632760076,2.817857110792118e-05,1.185128050855335e-06,4.0187415916384615e-08,-3.7720914388526345e-07,11983,-3.159471,-4.782424,13.934555
0.7659163408096031,-0.5998223006494199,-0.0319811392021228,0.0010025680066229,0.0022115887311467,2.9982965856069872e-05,1.4042169391586173e-06,4.294118510720173e-08,-7.14561432982964e-08,11984,-3.03623,-4.552904,13.712191
0.74593962182693,-0.4064365524717447,-0.0047617550106467,0.0008475806943727,0.0025373484791951,3.462816676732293e-05,1.64076938805065e-06,5.0836887082985314e-08,2.350816328976228e-07,11985,-2.958275,-4.320782,13.540668
0.7308673911189683,-0.1310925616128485,0.0695805228544708,0.0007467119445455,0.0028699702049937,4.267994068715026e-05,1.8210755974942424e-06,6.781068108450937e-08,3.79176030694451e-07,11986,-2.912836,-4.164645,13.450904
0.6979938131422807,0.0879571516035053,0.1118794403020947,0.0006973903745793,0.0031935832074683,5.483923882419705e-05,1.8615588069792736e-06,8.578249336129086e-08,3.465182131918111e-07,11987,-2.899485,-4.075804,13.475242
0.594374259085224,0.2360092710413745,0.0818779337988499,0.0006902549694885,0.0034871129479392,7.119438564690845e-05,1.771364195423377e-06,9.566158679192029e-08,2.57547275639965e-07,11988,-2.869991,-4.062257,13.560537
0.5134832870033472,0.4775702671288713,0.0429109709353502,0.0006961446794195,0.0037240558788281,9.11495945756836e-05,1.6315952795825074e-06,9.557628562485997e-08,2.452166431126518e-07,11989,-2.837079,-4.012864,13.680945
0.4988231808234699,0.7925372753532318,0.0506927003424396,0.0006998915500437,0.0038964751699157,0.0001144090562468,1.5001568850425164e-06,8.71281296404083e-08,3.881860597267805e-07,11990,-2.790905,-3.850529,13.811213
0.2676484000519888,0.9694354009776176,-0.0293845033989136,0.0007005901715115,0.004017279770721,0.0001407980900943,1.425671809607093e-06,7.747982247980466e-08,6.920687869819225e-07,11991,-2.731015,-3.559156,13.971515
-0.2620476163782598,0.9804426077885574,-0.4002413654661294,0.0006829931280767,0.0041107050752375,0.0001696275371363,1.4614535454438176e-06,7.781958467502504e-08,1.0817342966282944e-06,11992,-2.608225,-3.323592,14.115872
-0.6745410174913444,0.9592056839265776,-0.9384672462365546,0.0006238201856128,0.0042229433207903,0.0001997653856429,1.5781502748640615e-06,9.46644833696024e-08,1.399046557537006e-06,11993,-2.393909,-3.14567,14.160872
-0.7472547972904089,0.9290641729727872,-1.2555972033448954,0.0005135058336587,0.0043705438651918,0.0002305692135073,1.6481755740639265e-06,1.2274191462036368e-07,1.5262943040740133e-06,11994,-2.113426,-2.956803,14.112003
-0.7185386407809019,0.8390527845605895,-1.2450629925449317,0.0003542660906033,0.0045380685972379,0.0002618293312812,1.584417897608098e-06,1.4345069438541458e-07,1.5197971139912658e-06,11995,-1.907925,-2.892923,14.108736
-0.7175702654658934,0.7305658632973046,-1.135058903966114,0.0001543292558025,0.0047112382915162,0.0002933046341231,1.445957917603205e-06,1.4353852954102126e-07,1.4850123506446724e-06,11996,-1.890849,-2.943628,14.246871
-0.66971389116898,0.6386472849639646,-1.066230710766856,-6.529569371047626e-05,0.0048613892005998,0.0003249571004072,1.319227407511669e-06,1.3034808135567078e-07,1.4130374208107184e-06,11997,-2.009028,-2.975986,14.454058
-0.6002376962357335,0.5356092531493,-1.0106350665805537,-0.0002899956671196,0.0049760339558755,0.0003560516944579,1.1805388718577598e-06,1.1324630992426647e-07,1.2945489812749488e-06,11998,-2.193353,-2.926453,14.667272
-0.5180901235541819,0.4070627858831437,-0.9141786152311576,-0.0005106180882357,0.0050625578035847,0.0003850140229296,9.919527320334667e-07,9.283097664589883e-08,1.2060436686025936e-06,11999,-2.416674,-2.794493,14.850711
-0.39455238261179,0.135076768374336,-0.75436290663369,-0.0007068553816117,0.0051213627960894,0.0004099258317739,7.984607832136658e-07,7.618334920700594e-08,1.1313625559745558e-06,12000,-2.651661,-2.690083,14.986918
-0.2717061444735199,-0.3804508677121743,-0.5863395761381782,-0.0008495979647038,0.005154622859744,0.0004281214010292,6.481022051988698e-07,7.41066160935179e-08,9.389609501972428e-07,12001,-2.881428,-2.69029,15.100489
-0.1280633087875995,-0.8769666499468166,-0.4813103676628133,-0.0009251492623979,0.0051631916206968,0.0004384805600357,4.929349468718181e-07,8.47811024544995e-08,6.156413470080116e-07,12002,-3.094968,-2.779838,15.228179
0.0590837896594727,-1.019209788794138,-0.4300078073899996,-0.0009347649380058,0.0051437982443044,0.0004416394831893,2.380657214404031e-07,9.460291070185381e-08,2.912838669270895e-07,12003,-3.272859,-2.868285,15.372804
0.1961766056743913,-0.9055494816373314,-0.3950327017322004,-0.0008849917430936,0.0050972531082761,0.0004386953045718,-8.190364376537723e-08,9.124087377386741e-08,4.33847537553767e-08,12004,-3.415851,-2.888183,15.50755
0.2282504856916907,-0.8250060727838173,-0.3658709735883364,-0.0007956500752983,0.0050272309112169,0.0004320688829305,-3.211853880724261e-07,7.512798376361849e-08,-1.3236167808593266e-07,12005,-3.536228,-2.812237,15.64365
0.2158372904445274,-0.8020105548379319,-0.3330889118248534,-0.0006819051919308,0.0049378965861172,0.0004244204918142,-4.336052074742399e-07,5.428546923316639e-08,-2.0546046260206802e-07,12006,-3.626011,-2.650115,15.792037
0.2110461408336063,-0.6851894605903358,-0.2971760355717239,-0.0005552079486981,0.0048355618781836,0.0004188421383563,-4.722307849758569e-07,3.381760620478728e-08,-1.452202330746132e-07,12007,-3.678407,-2.445238,15.909714
0.2082769954054311,-0.412873037331479,-0.2760616615198457,-0.0004408967893416,0.0047297761872451,0.0004205148199758,-4.539655071739097e-07,1.976216143173508e-08,-3.70042800168157e-08,12008,-3.704014,-2.261109,15.979471
0.2050693099822861,-0.0972540455230352,-0.2693597044269774,-0.0003768445420316,0.0046342067262286,0.0004369856172488,-3.736371793307117e-07,1.7132087155072716e-08,1.2513814604969393e-08,12009,-3.706423,-2.124874,16.002034
0.2033529552955306,0.1067131865735387,-0.2531211945308476,-0.0003796617486394,0.0045600862325806,0.0004708561525183,-3.096400665627673e-07,2.2048865051246712e-08,6.565086139157668e-09,12010,-3.687353,-2.042688,15.980411
0.1995557588810972,0.2088891304808942,-0.218105800292288,-0.0004448657850637,0.0045166645652748,0.0005194500834122,-3.720398827791847e-07,2.6148132398179094e-08,-3.7998815690185546e-08,12011,-3.670773,-1.998779,15.91643
0.2055707018957092,0.282876196207535,-0.180972223398402,-0.0005617706196711,0.0045160460488738,0.0005782163614863,-5.03406356231402e-07,2.350662481586353e-08,-1.2521601750515513e-07,12012,-3.668214,-2.001194,15.824506
0.2266700021082482,0.3080522403727295,-0.1496851141523165,-0.0007024161239714,0.0045721929447464,0.0006380383908898,-5.62400140291045e-07,1.4263304155816549e-08,-1.9361009272444998e-07,12013,-3.693602,-2.07119,15.728696
0.2260858879982677,0.2709702415533944,-0.1343769889612477,-0.0008452087732346,0.004684571532993,0.0006894231573931,-5.921046575399874e-07,9.574240736460166e-10,-2.142568173715265e-07,12014,-3.73774,-2.242576,15.649753
0.1779872028763101,0.2372838864747612,-0.0875070567061938,-0.0009740162415937,0.0048360804293662,0.0007218051313833,-7.358350277781933e-07,-2.0258898918602957e-08,-2.633559884076936e-07,12015,-3.806351,-2.469239,15.524693
0.1317437724943976,0.2793969929997124,0.2043607185682463,-0.0010546685628723,0.0049975444445532,0.0007179612060669,-9.968672097240343e-07,-5.52346733810555e-08,-3.673269146662685e-07,12016,-4.0093,-2.670646,15.474478
0.097380091616304,0.3746405524953268,0.8132169409927671,-0.0010369652090946,0.005119199927581,0.0006532957995215,-1.2691151558235622e-06,-9.988592364068064e-08,-4.546215760756804e-07,12017,-4.371527,-2.822244,15.58381
-0.0062187293355245,0.4239790564914154,1.3594540320296726,-0.000898616787219,0.0051803157319107,0.0005276211741272,-1.484145035860998e-06,-1.4194395040258893e-07,-5.082566970202264e-07,12018,-4.824629,-2.767261,15.834468
-0.186403034362774,0.3719508099531702,1.4899722625772571,-0.0006450629506651,0.0051911964925512,0.0003679779194862,-1.5991960610796872e-06,-1.7066019382885692e-07,-5.746010556432433e-07,12019,-5.114748,-2.561839,16.023216
-0.3486459631332418,0.2398079132065412,1.353843076920446,-0.0002904772873057,0.0051628066187977,0.0002158953318412,-1.5339186503873805e-06,-1.7672386820093793e-07,-6.165012509661701e-07,12020,-5.094532,-2.336062,15.969696
-0.4269323025386149,0.0592693661655333,1.2456277148558856,0.0001276643151524,0.0051220288580847,0.0001412327127589,-1.2634827140122227e-06,-1.524059727458813e-07,-5.623024993759536e-07,12021,-4.916681,-2.11776,15.807214
-0.4355965697729633,-0.1751737684991182,1.1949211683416778,0.0005789706824359,0.0050817927575447,0.0001661217322379,-9.024300112017558e-07,-1.0408822670009469e-07,-4.4298363322256083e-07,12022,-4.691877,-1.919624,15.633483
-0.4005782240058978,-0.4468562585167825,1.0735042197931253,0.001038500465015,0.0050384639194827,0.0002599524122174,-5.744309550865456e-07,-5.4212315615478366e-08,-2.940687708494639e-07,12023,-4.44585,-1.717309,15.528315
-0.3083068992405201,-0.6499638077912062,0.7839787749537092,0.0014556803343824,0.0049991980169102,0.0003845351102648,-2.885224640144298e-07,-1.946267760098929e-08,-6.034407379871185e-08,12024,-4.112174,-1.573704,15.459695
-0.1699722595845189,-0.6921353279851774,0.3786959282718887,0.0017560838019119,0.0049747937168156,0.0004682557108975,-3.0114339143520634e-08,2.75195292773663e-09,2.6309009389963685e-07,12025,-3.719873,-1.516411,15.371996
-0.0147507172454533,-0.6332775105061899,0.0747243955679768,0.0019057126768916,0.0049707238164389,0.0004840531086877,1.4849636358245212e-07,1.8721059446076427e-08,5.826005607802293e-07,12026,-3.345193,-1.518836,15.223478
0.1719711389340681,-0.5772611327930262,-0.0125307573080339,0.0019109178219531,0.0049897655685683,0.0004561199540764,2.257691133040084e-07,2.7261880715880114e-08,8.588459775835102e-07,12027,-3.019906,-1.538319,15.011518
0.3659593268718025,-0.538941589261269,0.0099829021468735,0.0017895530607343,0.005031172845334,0.000402835511976,3.047941048896662e-07,3.37182731529432e-08,1.0994023084415874e-06,12028,-2.77131,-1.530455,14.792499
0.4586197544297221,-0.5055693493011214,0.0168371725403941,0.0015920698142865,0.0050884930407594,0.0003607339185968,5.129909930090094e-07,5.1265086955566327e-08,1.2598788020836788e-06,12029,-2.589462,-1.428884,14.596867
0.4324950514872133,-0.4398347982417813,-0.0014880991313559,0.0013479789321007,0.0051604478230545,0.0003451296216109,8.51904407199697e-07,7.773511220075546e-08,1.3200817931234053e-06,12030,-2.486786,-1.211097,14.411725
0.4049099036694211,-0.3216401898405613,0.0340353164285095,0.0010656607491981,0.0052505746027446,0.0003435743225989,1.2226299442978042e-06,9.499043211603597e-08,1.3284939043888398e-06,12031,-2.461547,-0.965482,14.22018
0.4201379923399037,-0.2046640770277189,0.1424843656229465,0.0007790815176416,0.0053600230525361,0.0003533608603643,1.5404061966775138e-06,9.62178633058528e-08,1.3066810945091834e-06,12032,-2.497919,-0.775036,14.047727
0.426377056354137,-0.0934778916210355,0.2264793620459052,0.0005385627475386,0.005489899393323,0.0003695743227339,1.760596113830526e-06,9.110574749445469e-08,1.206437196497118e-06,12033,-2.556192,-0.71462,13.92299
0.3908518324979632,-0.0003963804158567,0.2243347603114863,0.000367771419579,0.0056412504770546,0.0003902722491557,1.8820470987318827e-06,8.653478250673717e-08,1.010436353548858e-06,12034,-2.63046,-0.707744,13.882011
0.3411772704408849,0.0491738786310303,0.1795591529830628,0.0002666751031281,0.0058142947090636,0.000420720443065,1.9635039872656597e-06,8.437354738778265e-08,7.955728384574784e-07,12035,-2.626589,-0.743606,13.830485
0.3163613705395914,0.2201722361114713,0.1591927012121559,0.0002254512398813,0.0060099406036319,0.0004618854654987,2.0807767134913454e-06,9.26543009578816e-08,5.974532055773856e-07,12036,-2.564261,-0.692746,13.74128
0.2823115458013419,0.5612982199534116,0.1564588946921131,0.0002112045893389,0.006229600383579,0.0005128742615897,2.261361439909241e-06,1.18723566989289e-07,3.79012861999725e-07,12037,-2.450208,-0.557543,13.61353
0.2537810424820851,0.7598192529328659,0.0687237163874657,0.0002065774363583,0.0064730364416224,0.000573654691822,2.4686779149278123e-06,1.547412819509377e-07,1.937267284987443e-07,12038,-2.318142,-0.458035,13.515553
0.2324344536282023,0.7121409853023535,-0.2059809920798981,0.0002092441620112,0.0067383232384093,0.0006435032004976,2.6377592515662407e-06,1.8585762009393846e-07,1.452335540084048e-07,12039,-2.203509,-0.400033,13.481359
0.0215768927872146,0.696031234257425,-0.6448154337588261,0.0002001339536295,0.0070224580876741,0.0007214286405255,2.7140303659289746e-06,2.0817646521800065e-07,2.1082179421722726e-07,12040,-2.075942,-0.352592,13.447284
-0.3959809815457075,0.7797056770919233,-1.070650491116227,0.000150175407331,0.0073204784228859,0.0008061373160763,2.6864509657706034e-06,2.2469425113722066e-07,2.82469308784848e-07,12041,-1.940155,-0.113012,13.413409
-0.6849583392987174,0.7946521604002866,-1.2897195170691182,4.70873948996487e-05,0.0076263796293473,0.0008965627493486,2.604440127688192e-06,2.344580144486041e-07,3.0783980695631493e-07,12042,-1.820026,0.042975,13.425979
-0.6986125492394288,0.7200446707648749,-1.2748373322087998,-0.0001066569757321,0.0079325528041967,0.0009919315055861,2.512032056457616e-06,2.3663885560493027e-07,2.826523510798571e-07,12043,-1.762639,-0.027532,13.578969
-0.639201401101007,0.6033170491970332,-1.1594557581875584,-0.0003017988806385,0.0082278089397474,0.0010912311111168,2.374861290809461e-06,2.326738389342107e-07,1.900650829668379e-07,12044,-1.76345,-0.187485,13.815971
-0.604886990143724,0.4407476362817367,-1.0750420756356855,-0.0005139390909684,0.0084965269589029,0.0011933483601807,2.134920223511419e-06,2.2291748481258866e-07,1.6640651277968772e-08,12045,-1.828804,-0.308023,14.086704
-0.5151239062136158,0.2842587486279735,-1.0270105566270704,-0.0007268772405224,0.0087289891725055,0.0012958321709178,1.7982557461009286e-06,2.098593924401896e-07,-2.416682985150625e-07,12046,-2.000973,-0.353044,14.368115
-0.3928406895909696,0.1748868012125083,-0.8911944336934043,-0.0009317520257999,0.0089214470722772,0.0013945494927166,1.3982219123698829e-06,1.993025819885356e-07,-5.932512169191364e-07,12047,-2.270169,-0.340701,14.616233
-0.2953485290433359,-0.0258715915927446,-0.5894874788426641,-0.0011069404727502,0.0090703264480147,0.0014840397196579,9.366509682216312e-07,1.917597923742696e-07,-1.014273461632092e-06,12048,-2.571263,-0.363052,14.800912
-0.15832962386371,-0.4212288261278122,-0.2808738303130663,-0.0012212468463633,0.00917525617763,0.001556686159202,4.360034893740132e-07,1.793365086376847e-07,-1.4201671968776604e-06,12049,-2.85447,-0.502761,14.962566
0.1044715970804422,-0.7828192252221273,-0.1615687650162049,-0.0012621072059373,0.0092337001019192,0.0016085821737688,-4.5540090350762344e-08,1.5873989908118258e-07,-1.7357765938211731e-06,12050,-3.086543,-0.73762,15.12872
0.4240489975885577,-0.8617378066964116,-0.1682820984250652,-0.0012352499708776,0.0092406120802608,0.0016398725975282,-4.6994660289372686e-07,1.3782959389320462e-07,-1.9732288070960565e-06,12051,-3.253648,-0.980055,15.291892
0.6142351172762693,-0.7621562712746213,-0.1583956484493673,-0.0011541732154129,0.0091937167422987,0.0016514376087027,-8.015292164542512e-07,1.2251306877583296e-07,-2.148401940170173e-06,12052,-3.366057,-1.154308,15.417745
0.6337114092803748,-0.6982983976804329,-0.1286927885115631,-0.0010499153164537,0.0090924845213566,0.0016469031200341,-9.96946658467222e-07,1.1118193723775368e-07,-2.2205834241221256e-06,12053,-3.443762,-1.234862,15.510207
0.586499413361037,-0.67874317963938,-0.1129030197524632,-0.0009406233973388,0.0089410814206239,0.0016293457530354,-1.049058307376594e-06,1.0713789181411013e-07,-2.2335878321565745e-06,12054,-3.497127,-1.225309,15.576302
0.541280236529545,-0.5809234905162377,-0.1206393187027804,-0.0008316461421291,0.0087502598439212,0.0016014190638949,-9.878906057567854e-07,1.1746249594529208e-07,-2.318690748496832e-06,12055,-3.523669,-1.157023,15.617424
0.5224837508761021,-0.3367900038387383,-0.1457896815719999,-0.0007399575791595,0.00853691639243,0.001569189416463,-8.529752984069035e-07,1.3517801783481926e-07,-2.50144277437187e-06,12056,-3.522149,-1.063527,15.631082
0.5325473592976573,-0.0440570105000206,-0.1508902729009193,-0.0006883041360385,0.0083272724232066,0.0015420682648207,-6.908583437057822e-07,1.4467282237881498e-07,-2.698479474387705e-06,12057,-3.499522,-0.974373,15.606435
0.5461435016053342,0.127787343165674,-0.1167761896078699,-0.0006876266301993,0.0081340224881399,0.0015236308495619,-5.834053498468581e-07,1.44731059963932e-07,-2.872166434421478e-06,12058,-3.489491,-0.935418,15.561107
0.523495934267445,0.1744385980976043,-0.0856577145524974,-0.0007384319329556,0.0079554738667344,0.0015115412215887,-6.04474274421693e-07,1.4862341829703137e-07,-3.094431761182588e-06,12059,-3.512055,-0.962699,15.492537
0.4504616787278414,0.1903451072922363,-0.0709612029224699,-0.0008345466819907,0.0077890459916052,0.0015017484442468,-7.330101294051846e-07,1.6195987967861658e-07,-3.4238729747640567e-06,12060,-3.562629,-1.033326,15.403001
0.3519827345195042,0.1811237146847833,-0.0163777109498226,-0.000957118757567,0.0076241217780833,0.0014854180455286,-9.217613009692344e-07,1.736872121568668e-07,-3.769848930656384e-06,12061,-3.615148,-1.08037,15.296779
0.2464932268894866,0.1484838516131977,0.0533989533154147,-0.0010897475931698,0.0074565746723172,0.0014549567457438,-1.1748381960676015e-06,1.756731350771921e-07,-4.040168171166011e-06,12062,-3.637584,-1.156063,15.11036
0.1271510033701635,0.1738559513139915,0.1491892263766649,-0.0012165788224363,0.0072897699367671,0.0014036688485052,-1.471355746182272e-06,1.6861120026404218e-07,-4.2645710472434605e-06,12063,-3.714079,-1.250284,14.859197
-0.0074109049479041,0.2966180015064693,0.475913458217967,-0.0013072022494906,0.0071212798361022,0.0013193622113938,-1.7503279035188417e-06,1.4733749174308678e-07,-4.463851965441678e-06,12064,-3.926681,-1.511584,14.692155
-0.1255682359198489,0.4122768526265623,0.9902664629202136,-0.0013165975641519,0.0069461045635291,0.0011845937531737,-1.9856568494643138e-06,1.1134790413483573e-07,-4.623065846070214e-06,12065,-4.306512,-1.689204,14.658973
-0.2129062483102929,0.4019048784169836,1.278769535854321,-0.0012267441837556,0.0067628176942769,0.00100103491084,-2.178656901409669e-06,7.736451818878455e-08,-4.764198331626113e-06,12066,-4.711007,-1.701088,14.678246
-0.2971950711890654,0.2992294343105465,1.218785567582134,-0.0010474622014518,0.0065723240782104,0.0007915737435842,-2.3038818297646354e-06,6.415721025481163e-08,-4.92522893713576e-06,12067,-4.87121,-1.60265,14.489384
-0.3644254658678612,0.19490111883741,1.0942314175110737,-0.0007972995918854,0.006377145077183,0.0005913439342141,-2.342602836360658e-06,7.362727310949007e-08,-5.0749653942288464e-06,12068,-4.835422,-1.440078,14.117626
-0.3728559295635945,0.0671030404399814,1.0427031434457743,-0.0005179086415136,0.0061829856942138,0.0004585800544436,-2.3442721562716625e-06,8.968177666356917e-08,-5.092533112068173e-06,12069,-4.697928,-1.237296,13.675996
-0.3444938061070153,-0.1201084810393274,0.9855775464160724,-0.0002330216714986,0.0059921431135809,0.0004113436541136,-2.3677797657297047e-06,9.85756644816741e-08,-4.913800033975632e-06,12070,-4.527601,-1.001564,13.27678
-0.3026637917874536,-0.2481517235480128,0.880360271756651,5.220539802020289e-05,0.0058034725748685,0.0004233324295752,-2.425632618452437e-06,9.796757257323054e-08,-4.5874719458400025e-06,12071,-4.320485,-0.740998,12.955375
-0.1991222168982777,-0.2534545864449665,0.7369985900668254,0.000317606908211,0.0056168011747846,0.0004606976468426,-2.532113728787364e-06,8.695260233950933e-08,-4.187219657285039e-06,12072,-4.087122,-0.564873,12.654198
-0.026045179741494,-0.3235362938892472,0.6209978856364355,0.0005364251140318,0.0054312760737972,0.0004602390424785,-2.7172682829555e-06,6.87268060953973e-08,-3.82667934163639e-06,12073,-3.870184,-0.535951,12.352064
0.1261071703349671,-0.5381728236860082,0.5801057380930725,0.0006976792814703,0.0052452902596032,0.0003981241885739,-2.99092073867386e-06,5.151215552126873e-08,-3.5905393438644656e-06,12074,-3.689149,-0.597608,12.03764
0.1904871917449735,-0.6711562177110342,0.5480041320896072,0.0008044517890383,0.0050566498832605,0.0002955219962917,-3.327160463655038e-06,3.832885771597759e-08,-3.40236622038399e-06,12075,-3.536229,-0.662074,11.731266
0.1870793625048939,-0.6121134010763783,0.4910063872550083,0.0008703097480007,0.0048610726304611,0.0001690624254223,-3.683217543578205e-06,2.6069639888220145e-08,-3.1449599535910844e-06,12076,-3.419927,-0.663938,11.43785
0.1680015724550589,-0.5380759293260275,0.4740925235226061,0.0009274213909843,0.0046517425114675,5.197342915194735e-05,-4.015318222092419e-06,1.0235018222244036e-08,-2.7895128007948557e-06,12077,-3.327301,-0.541857,11.145703
0.15351811111571,-0.5180581812439351,0.5380227741112372,0.0009908146546235,0.0044196350486641,-4.1131898893305245e-05,-4.281827025948294e-06,-1.1291888314836482e-08,-2.327872795427527e-06,12078,-3.250628,-0.301384,10.836827
0.1412010101349724,-0.4217631186461367,0.6343922673705545,0.0010586057712804,0.0041523638938168,-0.0001197871421888,-4.484291861835813e-06,-3.7030800044004e-08,-1.741193400326289e-06,12079,-3.169705,0.008905,10.509601
0.138844414813672,-0.238492507136254,0.6729744259307935,0.0011370662315244,0.0038323335292566,-0.0001841660834733,-4.672224364236099e-06,-6.60570143679231e-08,-1.072424744025662e-06,12080,-3.072916,0.303208,10.159377
0.1127788073358178,-0.1059732383962649,0.6309323797030082,0.0012324967703549,0.0034350558085708,-0.0002354640104396,-4.886651509581068e-06,-1.0207522410947126e-07,-4.2367584139303683e-07,12081,-2.977062,0.554113,9.784802
0.0234553824356193,-0.0920451433772608,0.5580396487739714,0.001346259549789,0.0029472497401866,-0.000273715030918,-5.149252567706935e-06,-1.4955012478352997e-07,1.7582821566381487e-07,12082,-2.854498,0.683586,9.33787
-0.1021609332895661,-0.0484301722866115,0.4932400571859872,0.0014763774138124,0.0023674894674108,-0.0002941169901691,-5.475886195988966e-06,-2.0373098022875336e-07,7.873056943646338e-07,12083,-2.690839,0.777872,8.774459
-0.2390098819474471,0.2034655459196792,0.4398239782384658,0.0016132806328887,0.0016964116453154,-0.000295912123039,-5.851853352701791e-06,-2.5245377981185944e-07,1.43783579818146e-06,12084,-2.469373,0.871065,8.104569
-0.3394566954153938,0.5549439814377828,0.3806094045392207,0.0017372927347888,0.0009426850567268,-0.0002810072680393,-6.194971232163538e-06,-2.905202006646796e-07,2.1481209663294952e-06,12085,-2.203242,0.955697,7.392196
-0.3894147236364622,0.7781917988446434,0.2517923017066847,0.0018258206829006,0.0001117305227955,-0.000249965716174,-6.381558562364137e-06,-3.220431499805497e-07,3.0267181554793707e-06,12086,-1.915391,0.999947,6.712868
-0.5567553735664723,0.8319470549420946,-0.1177955863672461,0.0018500788469499,-0.0007942371696919,-0.0002033463443925,-6.354173626551547e-06,-3.505464405374025e-07,4.170687480158184e-06,12087,-1.596256,1.068451,6.026583
-0.8824553860014971,0.8117907440399743,-0.7730316568488104,0.0017658586187044,-0.0017645623163526,-0.0001428622137605,-6.168289565310632e-06,-3.778813658946709e-07,5.5016248100198544e-06,12088,-1.117545,1.23241,5.105866
-1.0922824632693593,0.7684233421241413,-1.359086828904298,0.0015103731716153,-0.0027813303486466,-7.115825845667109e-05,-5.914330725663029e-06,-4.110459876113472e-07,6.815477413120897e-06,12089,-0.515027,1.567056,3.89965
-1.0812606035149277,0.6787242321943536,-1.5251442244854707,0.0010707650876006,-0.0038357431548241,9.774981915708917e-06,-5.667795406799772e-06,-4.6063109509584476e-07,7.996016708819701e-06,12090,-0.086146,1.904315,2.672772
-1.0557243892975985,0.5565592451710832,-1.39336163572177,0.0004894103554515,-0.0049272065680861,9.844872374010264e-05,-5.490323634435864e-06,-5.289300522646318e-07,9.045458063493476e-06,12091,0.073122,1.970705,1.501323
-1.064709852271379,0.4570454922331412,-1.2882649486261646,-0.0001664380782988,-0.0060558316684172,0.0001929162605315,-5.385612178258707e-06,-6.063807375321198e-07,9.925240737270944e-06,12092,0.039016,1.841692,0.246622
-0.9929528020372868,0.3944863942691873,-1.2580336689748928,-0.0007766740991096,-0.0072268649533147,0.0002910589882665,-5.275277935713428e-06,-6.842567457560714e-07,1.0561966562991174e-05,12093,-0.119378,1.714311,-1.1411
-0.8933246141041382,0.3507601070837626,-1.0910782611128351,-0.0012840311644855,-0.0084372373123944,0.0003881994044088,-5.065430650053978e-06,-7.596774997421285e-07,1.0999751438573455e-05,12094,-0.382267,1.731777,-2.629865
-0.8220838221089823,0.3056992052489504,-0.7233812502120912,-0.0016987888941343,-0.0096742489423392,0.0004764581386505,-4.737027297709146e-06,-8.271197183494614e-07,1.1362611899747892e-05,12095,-0.703194,1.877123,-4.208728
-0.6905931928140314,0.1890305639797316,-0.3938118127673721,-0.0020195090401941,-0.0109248193553961,0.0005454255744354,-4.338643757105565e-06,-8.796637561763437e-07,1.1669572078325578e-05,12096,-1.017042,2.002605,-5.890456
-0.5075262478543674,-0.0437978368753462,-0.2978636252354288,-0.002265450824293,-0.0121709669837861,0.0005805826616714,-3.892152842502895e-06,-9.169912391822028e-07,1.1857956934860029e-05,12097,-1.265983,1.97461,-7.730182
-0.3532134287625871,-0.2579399108783202,-0.3231007602190782,-0.0024436088442642,-0.0133954481036561,0.0005739219397053,-3.3501292376376426e-06,-9.431444123526164e-07,1.196147246036176e-05,12098,-1.467404,1.762936,-9.730601
-0.1813635237727943,-0.3188170287211876,-0.31390640141488,-0.002542330144877,-0.0145818728227456,0.0005244841975693,-2.634368225029166e-06,-9.614003899812083e-07,1.208234802451624e-05,12099,-1.638692,1.516511,-11.875996
0.0500280279916649,-0.2923542416226751,-0.2928089824689638,-0.0025742539514894,-0.0157072161126603,0.0004321781807233,-1.7361469541113824e-06,-9.777275007780715e-07,1.2243645636925195e-05,12100,-1.799906,1.317246,-14.153857
0.2501606179942483,-0.2720080795342007,-0.2888000927538378,-0.002569779490948,-0.0167419028609522,0.0003012724993863,-7.663617816123031e-07,-9.9960589190336e-07,1.2391303156113218e-05,12101,-1.955132,1.193139,-16.567924
0.3630715531688674,-0.2587050876214668,-0.2833682821209814,-0.0025415403262611,-0.0176744977840376,0.0001341783795406,1.6399302572297453e-07,-1.0246768719265043e-06,1.2475439162816186e-05,12102,-2.083533,1.091856,-19.109309
0.4332614824614834,-0.2469764750671029,-0.2748972099258042,-0.0024893077800093,-0.0185132117510365,-6.864292565017635e-05,1.0207066018678333e-06,-1.042765649106401e-06,1.2472126122999663e-05,12103,-2.179442,0.988942,-21.729864
0.465110245001708,-0.2373878625770014,-0.2549965333731841,-0.0024139740733341,-0.0192760451066638,-0.0003021412331117,1.7822173095236574e-06,-1.0486983651906416e-06,1.2352096615027296e-05,12104,-2.25307,0.841493,-24.393624
0.4522389253300141,-0.2243814064819257,-0.2289643598252613,-0.0023099739086516,-0.0200008713652485,-0.0005573986160774,2.457538515650976e-06,-1.040366977872066e-06,1.2091265840818571e-05,12105,-2.301071,0.693342,-27.081482
0.444637692707041,-0.2103377937614607,-0.2153266531388377,-0.0021788688571986,-0.0207036002390925,-0.0008297901057239,3.1516743886878844e-06,-1.012047125159069e-06,1.1711482219372828e-05,12106,-2.346679,0.596457,-29.777901
0.4604391306699012,-0.1866695895464637,-0.2259309834216052,-0.0020306853801039,-0.0213769211412059,-0.0011183449238715,3.979421360414459e-06,-9.642703216596566e-07,1.1260335813802176e-05,12107,-2.411309,0.575644,-32.445747
0.4977832356959533,-0.1573093439187279,-0.2545410225889644,-0.0018722124872977,-0.022019337488552,-0.001421967054644,4.934301644054414e-06,-9.100804494333976e-07,1.077985829415263e-05,12108,-2.476751,0.639473,-35.103856
0.5568418284074532,-0.1190827062596814,-0.2268125218072491,-0.0017106640957757,-0.0226240295161778,-0.0017414438417496,5.933567351660748e-06,-8.571036818895425e-07,1.0278804122470124e-05,12109,-2.515096,0.814852,-37.818129
0.551939752562308,-0.0189656095320519,-0.0648039380291174,-0.0015510333866717,-0.023188046413708,-0.0020723168344181,6.948374107842414e-06,-7.96985038914322e-07,9.710129600804864e-06,12110,-2.453523,1.039075,-40.701508
0.4135961222894039,0.1293453935481877,0.1434573327522183,-0.0013944347392295,-0.0237149862603185,-0.0024038602275678,7.983660065867935e-06,-7.196861996804564e-07,9.02406980802014e-06,12111,-2.248927,1.179774,-43.866626
0.2297541177385224,0.2076327428950237,0.2263283363059158,-0.0012416275131002,-0.0242018604063302,-0.0027232423489256,8.984303870860661e-06,-6.232067576502899e-07,8.212578249520634e-06,12112,-2.060833,1.325884,-47.168715
0.0944433454149833,0.1837245540405137,0.2439808315397069,-0.0010914047880391,-0.0246413688398225,-0.0030125268206625,9.883639533443605e-06,-5.121518202062407e-07,7.298242965662343e-06,12113,-2.037015,1.474377,-50.320759
-0.0015751064184606,0.1525500517594159,0.4034450822384772,-0.0009446540396485,-0.025044758735098,-0.0032624051861434,1.0691717465929014e-05,-3.9676648563246164e-07,6.3520257747265535e-06,12114,-2.184799,1.861218,-53.288951
-0.0639517468118043,0.1454104823635494,0.6448098549777131,-0.0008047727437888,-0.0254431935503012,-0.0034733286072649,1.1450238255975144e-05,-2.857711832963924e-07,5.4635749234226e-06,12115,-2.402662,2.351101,-56.141776
-0.0798154598011318,0.1145190184330372,0.7374213660557076,-0.0006742060797002,-0.0258814401550959,-0.0036469671763837,1.2164939462877894e-05,-1.7891078548578917e-07,4.640519822022091e-06,12116,-2.557903,2.753696,-59.008051
-0.0781482469555213,0.0582653242791051,0.6769392999973292,-0.0005555827620137,-0.0264282548890718,-0.0037909493639328,1.279628470518593e-05,-7.217930995720232e-08,3.802177622859597e-06,12117,-2.574477,2.986171,-61.972467
-0.0882481241290003,-0.0108007385753727,0.6213981067090166,-0.000448864740693,-0.0270996850890995,-0.003911823912488,1.3288040901148474e-05,3.715074970213511e-08,2.8470076347949976e-06,12118,-2.457303,3.165802,-65.104199
-0.1119631268057438,-0.0967991026662536,0.5995555937009944,-0.0003504789652933,-0.0278528058512474,-0.0040152040973664,1.36318088479394e-05,1.5367544056034209e-07,1.6902519923347303e-06,12119,-2.28162,3.41452,-68.390509
-0.1687216916917752,-0.1852122843962326,0.52747459451147,-0.0002549586628394,-0.0286259494810365,-0.0041143683837211,1.3864908604504563e-05,2.841168657746766e-07,2.810394908269891e-07,12120,-2.151582,3.771477,-71.830185
-0.2561040897568233,-0.2564925771845309,0.4078590313499174,-0.000153276387237,-0.0293094436877241,-0.0042301448820211,1.4003746680817296e-05,4.328194494129898e-07,-1.3903443619756345e-06,12121,-2.129257,4.19389,-75.399677
-0.3251484353814674,-0.2822577571201743,0.3264124352981269,-4.1643360191240665e-05,-0.0298568357745589,-0.0043704327184022,1.4020787262785102e-05,5.978649635483948e-07,-3.2433695033310223e-06,12122,-2.193281,4.6277,-79.064017
-0.3567896384624844,-0.2351726227898053,0.2960241977220083,7.79883761840767e-05,-0.0302917898118641,-0.0045300798876149,1.387247034287517e-05,7.698099509243254e-07,-5.08288942291058e-06,12123,-2.298813,5.049836,-82.781319
-0.3594797024453208,-0.1420607075674083,0.240864693768027,0.0002034237133341,-0.0306317898330668,-0.0047003009654174,1.3541777778002993e-05,9.336412698789652e-07,-6.74335278072372e-06,12124,-2.407794,5.460948,-86.494205
-0.3463679921928866,-0.0548849015929745,0.1245242529227792,0.0003294162827604,-0.0309216154406645,-0.004861900605801,1.30448458032169e-05,1.0793170165332308e-06,-8.234933594524086e-06,12125,-2.496641,5.849794,-90.189224
