AccX_processed,AccY_processed,AccZ_processed,GyrX_kalman,GyrY_kalman,GyrZ_kalman,MagX_processed,MagY_processed,MagZ_processed,PacketCounter,Roll,Pitch,Yaw
-0.348754400757921,-0.2317436820334485,0.6630544860794961,-0.0027836494180254,-0.0030775764853271,0.0011594090052434,-6.312346313823677e-08,7.982370968584366e-07,2.266989278585537e-07,11582,4.02732,-4.54409,-0.026904
-1.0247106879154892,-0.6877068390631738,1.950231838460891,-0.0028665278907834,-0.0026984460748714,0.0009153075042648,-1.4885895766804808e-07,8.854423144363236e-07,1.7220590014028373e-07,11583,4.032919,-4.561521,0.046556
-1.3425763123481524,-0.9032486131402426,2.5567311314972527,-0.002814792079251,-0.0018872847434426,0.0005416464191453,-1.8679015984026498e-07,9.289799219252518e-07,1.5497742544912808e-07,11584,4.038273,-4.573895,0.038976
-0.9691253506687344,-0.6568079356648772,1.8487932974255152,-0.0026873983807197,-0.0008818398924726,0.0003277602087139,-1.7691706965488769e-07,9.28849919325221e-07,1.750135037850868e-07,11585,4.041827,-4.579933,-0.037684
-0.981422867068813,-0.6645200002312996,1.8753813477475567,-0.0025186324044017,0.0001672926956003,0.0004214088069382,-1.192396871119162e-07,8.850523066362304e-07,2.3231413514815955e-07,11586,4.044995,-4.59683,0.044045
-0.9163581399647164,-0.6197842068110517,1.7554774119945238,-0.0023287177018101,0.0011423124313745,0.0008044368622298,8.028956500499725e-08,6.236295324382159e-07,3.709856176947267e-07,11587,4.050381,-4.607523,0.012131
-0.7813128984941593,-0.5291230944801529,1.501429889239516,-0.0021334213424687,0.0019543866624798,0.0014151436118545,2.284515732805069e-07,5.073163451459193e-07,4.980062422993067e-07,11588,4.053772,-4.622266,0.045822
-0.7382179213653245,-0.5008474194662912,1.422160786896586,-0.001942048885425,0.0025438802175935,0.0020652179079451,2.2963612643606557e-07,5.186874429087861e-07,4.944901052217132e-07,11589,4.060966,-4.639893,0.075288
-0.63420954823668,-0.4320662383832383,1.2267751722609657,-0.0017616785318493,0.0028768809972158,0.0026643757386874,1.042496161921211e-07,5.847799828211416e-07,3.666407708351084e-07,11590,4.064036,-4.641508,0.018509
-0.5434483310922729,-0.3711957729307863,1.0546626015736,-0.0015986253746958,0.0029476872817451,0.0032256005909759,-7.889895504830554e-08,7.160512815474253e-07,2.0039060582128866e-07,11591,4.070329,-4.653759,0.020515
-0.4666835480340041,-0.3186889547304473,0.906618225335396,-0.0014542614355652,0.0027893400176896,0.0036840707517809,-2.484492734322628e-07,8.807575926707273e-07,5.7334646905899914e-08,11592,4.073403,-4.666233,0.005283
-0.3661670835750332,-0.2493281042624502,0.7066912427237682,-0.001325851708068,0.0024825403884314,0.0039448564626489,-3.976331095228637e-07,1.06384964490551e-06,-6.336178484679356e-08,11593,4.022506,-4.675351,0.07291
-0.2810004892297822,-0.1935967414329928,0.5318203525982916,-0.0012131384560618,0.0020611767201207,0.0039650272051929,-5.018349376580586e-07,1.25472262502601e-06,-1.2612321738383964e-07,11594,3.941783,-4.655016,0.121097
-0.1858150141326867,-0.1367852080831929,0.3449329821521422,-0.0011181039406446,0.0015117472055012,0.0037391458045013,-4.028852796440344e-07,1.2686969320305443e-06,-9.07662685477131e-09,11595,3.863259,-4.597872,0.099623
-0.0883058859027929,-0.0751563073181264,0.1630005078414263,-0.0010422258816859,0.0008289959886296,0.0032947434714173,-1.9419084276337978e-08,9.367989369967738e-07,3.1248582070177055e-07,11596,3.799375,-4.574489,0.094805
0.0054685955665713,-0.0167973619135242,-0.0092346808886903,-0.0009881590755608,-9.53803589770442e-06,0.0027170461005216,3.7532220571703044e-07,4.710524047120371e-07,5.96025669397356e-07,11597,3.749921,-4.590323,0.085872
0.1007200820707747,0.0243005710419427,-0.1888093812938787,-0.000954285955795,-0.0009801111017609,0.0020570328912326,4.305269921678323e-07,2.659628249380843e-07,5.842314841905546e-07,11598,3.716162,-4.633398,0.034924
0.1915420441794789,0.0531968646526371,-0.3605381793306445,-0.0009340055268192,-0.0020020423781109,0.0013371379225032,1.9214951838392839e-07,3.414733649272185e-07,3.3679638157619384e-07,11599,3.703682,-4.693462,0.014893
0.2890647638467566,0.1014812004629079,-0.5302880453032106,-0.0009190405294826,-0.002981492450992,0.000623035656284,-7.757743511216734e-08,4.293252988009396e-07,5.55492785946976e-08,11600,3.714203,-4.745443,-0.020577
0.3935148833174277,0.1702018492218913,-0.699132685322865,-0.0008971709589979,-0.0037853638372451,1.051771096262778e-05,-3.126936262241155e-07,4.777558836144164e-07,-1.9972982282878626e-07,11601,3.743857,-4.803264,-0.026137
0.4888644555842378,0.2361905959190398,-0.8534884292124887,-0.0008621767701963,-0.0043425185556966,-0.0004525987235729,-5.398255437167082e-07,5.727734625069345e-07,-4.246376347595879e-07,11602,3.794003,-4.865515,-0.049901
0.5703101062838012,0.2940689258246157,-0.989511118438966,-0.000814632986304,-0.0046530900776475,-0.0007623927881213,-6.675308557285483e-07,6.18604713976661e-07,-5.517649756216702e-07,11603,3.854969,-4.936729,-0.024629
0.6463164532923189,0.3595088223240695,-1.1212175885364184,-0.0007555627894168,-0.0047216260351407,-0.0009300438388326,-6.325322213500605e-07,5.06876106568948e-07,-5.523895702282138e-07,11604,3.940338,-4.994834,0.04431
0.7216047958770946,0.4431737702722562,-1.2613273506331315,-0.0006897569951907,-0.0045914109969064,-0.0010059450708519,-5.27758966811315e-07,3.427382948120313e-07,-4.911137685116045e-07,11605,4.028985,-5.019103,0.070628
0.7919749186974444,0.5298184558306819,-1.4024755251003989,-0.0006205451378643,-0.0042924153492206,-0.0010133777740785,-4.187413787191534e-07,2.1514101155067017e-07,-4.07497276338349e-07,11606,4.109562,-5.003357,0.075396
0.8524763750355799,0.5972089774823417,-1.5316693338899154,-0.0005496429835122,-0.0038397877732405,-0.0009486672982134,-2.522877810898371e-07,2.584669498020047e-08,-2.821238612601284e-07,11607,4.169144,-4.966618,0.094146
0.9053994022834322,0.648527099527132,-1.650657330829541,-0.0004830256438369,-0.0032940167568952,-0.0008365334652885,-4.2634214234507615e-08,-2.553336530604389e-07,-1.4471156257648933e-07,11608,4.196882,-4.894446,0.203618
0.956456347865414,0.6954518694799297,-1.7652119100079335,-0.0004303806450799,-0.0027561771167517,-0.000718081920303,1.0056121104723784e-07,-5.042922972038671e-07,-7.017352868964566e-08,11609,4.199232,-4.79387,0.296995
1.006623813657081,0.7330585435233866,-1.8745296046914868,-0.0003964670676846,-0.0022702062910593,-0.0006083679795127,1.0084415642307552e-07,-6.398014626230023e-07,-1.1634998606504933e-07,11610,4.192371,-4.686101,0.39954
1.050798225495377,0.7591203697718744,-1.97222760634202,-0.0003815279027014,-0.0018262949169958,-0.0005003943208766,-1.44157873198565e-07,-5.835874494256514e-07,-3.811081063376195e-07,11611,4.20158,-4.619466,0.516128
1.08606200369669,0.7832494208772502,-2.054331438058478,-0.000385210875493,-0.0014053826080115,-0.0003770743671678,-6.893934179258268e-07,-2.73907501074011e-07,-9.078568621851808e-07,11612,4.232568,-4.593316,0.626377
1.1155429265742802,0.8044949020142386,-2.123249389548588,-0.0004041476443545,-0.000950591817519,-0.0001985149985204,-1.27853738588521e-06,5.8374190751092223e-08,-1.4766527762462248e-06,11613,4.278084,-4.592633,0.685901
1.1423128724484324,0.8201992135633841,-2.180227666572432,-0.0004387392819134,-0.0004407315771097,5.942622619369584e-05,-1.5520985490891316e-06,5.727444952034648e-08,-1.7972669576682027e-06,11614,4.317691,-4.583169,0.802567
1.1674223940732475,0.8359831173032585,-2.2239894934472284,-0.0004936598906158,0.0001061546556009,0.000405784895327,-1.4675412259809703e-06,-2.756740261154777e-07,-1.820643395898273e-06,11615,4.341919,-4.523657,0.892058
1.18919376657659,0.8427410267442172,-2.253253240025345,-0.0005728103548882,0.0006921974741978,0.0008655873518541,-1.2252077796002085e-06,-6.46084864585628e-07,-1.6672980067136431e-06,11616,4.343721,-4.415744,0.998406
1.202512481021517,0.8364526999893259,-2.27103057122537,-0.0006812950043567,0.0013219777726216,0.0014730135963273,-9.52031186995464e-07,-9.180224310278622e-07,-1.4329082882328844e-06,11617,4.353558,-4.27264,1.182128
1.2121233233737103,0.8265807706908576,-2.285045952648592,-0.0008216016579742,0.001989771023438,0.0022370184225789,-5.856510837254033e-07,-1.227741234673645e-06,-1.104342434352107e-06,11618,4.328479,-4.103712,1.482015
1.2194531407205558,0.7986491191432898,-2.290973011850314,-0.0009927829906618,0.0026843086823899,0.0031414047530587,-3.8536082060433215e-08,-1.6768590352982906e-06,-6.25999273769684e-07,11619,4.337877,-3.83992,1.7149
1.2099574888786602,0.750380916712294,-2.284978545256495,-0.0011935072262239,0.0033809125434486,0.0041541301530449,6.931325409200104e-07,-2.238600007259651e-06,1.9769995999624552e-08,11620,4.372308,-3.37536,1.864169
1.186121526862395,0.715673525146348,-2.2871086142407044,-0.0014204972298962,0.0040368406790898,0.0052137177956408,1.6867091670107448e-06,-3.0048963950489843e-06,8.961830211638157e-07,11621,4.338592,-2.612197,1.963208
1.121136589085418,0.6891900806494666,-2.2941746514119314,-0.0016693404985187,0.0046089531914206,0.0062522446660045,3.0641290377838987e-06,-4.079980046884948e-06,2.11053635332428e-06,11622,4.271588,-1.505498,2.107477
0.962777503312934,0.6306494274529331,-2.294928191115245,-0.0019341846655303,0.0050487631897729,0.0071886550299733,4.823397354896097e-06,-5.346864801327059e-06,3.712560430319198e-06,11623,4.253023,-0.061248,2.301549
0.7816936741663174,0.559670617885233,-2.388110045694208,-0.0022052348575502,0.0052848912755869,0.0078965770505778,6.850168107598073e-06,-6.676859480752493e-06,5.62602475621199e-06,11624,4.316376,1.665934,2.674803
0.6994759573172186,0.500856466904406,-2.635473848817125,-0.0024679085596004,0.0052203172719515,0.0081969693384051,8.851449874501989e-06,-8.054665961550379e-06,7.504773177522708e-06,11625,4.468755,3.564894,3.376357
0.7183522463059882,0.3636497136194778,-2.833550484669175,-0.002714477674291,0.004805695770778,0.0079677260943695,1.0324476040367144e-05,-9.386224193110045e-06,8.770752214605534e-06,11626,4.761486,5.474701,4.693579
0.7397923972384817,0.1110765244512514,-2.8178970630639237,-0.0029441887789449,0.0040418766258813,0.0071408501082053,1.087644119559615e-05,-1.0461817370294827e-05,9.03025015200904e-06,11627,5.180412,7.275068,6.620298
0.6832469704289339,-0.0574195558588933,-2.6762670537437785,-0.0031569742049525,0.0029442909057648,0.005638718377838,1.0596480217680769e-05,-1.1160368643564503e-05,8.444193355278636e-06,11628,5.738197,8.848356,9.193607
0.7541997573008037,-0.0398382681732409,-2.524531562741545,-0.003356998945266,0.0015685791955724,0.0034018506309803,1.0031650823122824e-05,-1.1561484200102026e-05,7.63756577489987e-06,11629,6.316523,10.163647,12.184947
1.2722750982790918,-0.0824127333812377,-2.472792903220705,-0.0035448962087173,-3.515995326703464e-05,0.0004958072728771,9.742831941431794e-06,-1.1749801468752722e-05,7.2350538203032126e-06,11630,6.705732,11.017251,14.122187
1.9705621980432069,-0.2997989687649499,-2.282068562743216,-0.003717312151246,-0.0018185846301408,-0.0028659267012117,9.83881392481292e-06,-1.1596471292509756e-05,7.403523161613728e-06,11631,6.567045,11.595798,13.8655
2.231182630644655,-0.432485931437079,-1.371328245370726,-0.003873740434614,-0.0036824491105112,-0.006319067881236,9.861811454981682e-06,-1.081504323377643e-05,7.70415536456577e-06,11632,5.46311,11.719735,12.226029
2.039385043664704,-0.3747662824619606,-0.0433301032827956,-0.0040147806248683,-0.0054757529950489,-0.0092713811174602,9.009072536012352e-06,-9.061325724055965e-06,7.313124393142654e-06,11633,3.88635,10.893889,10.572044
1.858979502007136,-0.3051215756901761,0.6193006979920977,-0.0041296609605124,-0.0071014343745172,-0.0114502231640946,6.4900380686713474e-06,-5.973949317817743e-06,5.432992767810323e-06,11634,2.217101,9.116669,9.727301
1.7981180062204931,-0.2105723470828992,0.4887030531935921,-0.0041948952922448,-0.0085109018979871,-0.0129189424109116,1.9516803977947683e-06,-1.429714155219801e-06,1.7060982984107303e-06,11635,0.531734,6.609061,9.556513
1.5588697607153617,0.0480633438825079,0.3355721786632333,-0.0041767762046987,-0.0096465758813749,-0.013752720594031,-4.2524375575788826e-06,4.19921924164804e-06,-3.571283307892824e-06,11636,-1.116578,3.618515,9.504393
0.9447728709762084,0.3087978527255471,0.373182404651924,-0.004024753581775,-0.0104674617121452,-0.0142054435645633,-1.1255999822872668e-05,1.0219592711955246e-05,-9.623145698420196e-06,11637,-2.63716,0.40649,9.256734
0.1745942818170474,0.3967675307260803,0.2597303425244748,-0.0036782060053331,-0.0108602246478432,-0.0143655777665697,-1.8102480118425652e-05,1.5973443500045134e-05,-1.5563291682898456e-05,11638,-4.026724,-2.865169,8.896174
-0.2730312665539658,0.5228935973852028,-0.18782792298845,-0.0030610889622584,-0.0106224227621714,-0.0141270939077351,-2.4146225558642912e-05,2.106225154231289e-05,-2.0782857428077844e-05,11639,-5.198991,-6.014853,8.480664
-0.3975272517936831,0.8207750899423142,-0.9058144794387376,-0.0020657265809301,-0.0095110393507127,-0.0134950155760775,-2.9359641446651425e-05,2.5463461012927096e-05,-2.526668183900381e-05,11640,-6.164431,-8.759206,7.959671
-0.758091941635457,1.050364531596918,-1.5181840223576148,-0.000544734136587,-0.0071997892428961,-0.0125004299151329,-3.402673676992726e-05,2.94000551475536e-05,-2.928266146378745e-05,11641,-7.00574,-10.907867,7.273613
-1.4358626376991137,1.1042558915382088,-1.623795324926468,0.0015078312664439,-0.0037400349549592,-0.011156765211054,-3.763143466970943e-05,3.271753656336964e-05,-3.2299296503437624e-05,11642,-7.782255,-12.489516,6.391397
-1.885030476926565,1.1190698136987236,-1.4041717408978531,0.003937750292987,0.0003747072628705,-0.0094945650805779,-3.817176380531922e-05,3.4111785514613125e-05,-3.244564360782821e-05,11643,-8.681621,-13.829731,5.161257
-1.8769759645748545,1.1262682358976104,-1.3921216732438506,0.0065047865086525,0.0044024276817393,-0.0075262615449618,-3.362669127436737e-05,3.16878667599093e-05,-2.8021374188768785e-05,11644,-9.205437,-14.823814,2.987864
-1.683907710762801,1.073629835398599,-1.7024182155734249,0.0088017494293531,0.0071318656970081,-0.0052454651060421,-2.436683755971405e-05,2.5018617915675465e-05,-1.959651507000663e-05,11645,-8.84647,-13.432773,-0.885628
-1.572338869836054,0.9264998869246764,-1.940716502214441,0.0105547481823065,0.0081084152195235,-0.002725318958447,-1.2984399461296557e-05,1.5842528451909526e-05,-9.575696639871973e-06,11646,-7.333317,-8.468261,-5.385383
-1.529131593069261,0.7443470408955035,-1.8096976687481083,0.0116226958824429,0.0077092210849313,-0.0001256798216922,-2.1773075325998e-06,6.505731850472791e-06,-2.693128866591389e-07,11647,-3.926025,-2.414255,-9.588884
-1.2265137009908424,0.703403900650355,-1.389614805798015,0.0118413496000675,0.0064072200238044,0.0023385205231679,6.022636033923706e-06,-1.1738547534582e-06,6.604211264449063e-06,11648,2.289834,-0.642163,-10.127992
-0.4854146562029068,0.7398287562949764,-0.90784679659901,0.0111007284337874,0.0051789744723334,0.0043530591656793,1.0274468404777356e-05,-5.962167142691514e-06,9.904490930444707e-06,11649,2.653204,-1.863223,-9.346973
0.2317620970368558,0.5869573170455915,-0.5551115373122399,0.0095474422922898,0.0044484433307017,0.0057686572424681,1.0791072165860634e-05,-7.635640406840717e-06,9.928973062107644e-06,11650,2.795486,-1.575169,-9.750529
0.4508294345293404,0.3572486505140739,-0.3922062335828696,0.0076362467352951,0.0040045826948453,0.0066169008230535,9.69097412636229e-06,-7.488749176801088e-06,8.685842237860366e-06,11651,3.228545,-1.017872,-10.202023
0.3757503062541805,0.3580363210223936,-0.3251678826840706,0.0057149686599631,0.0038445365853515,0.0069560130338488,9.260014608748211e-06,-7.409051173155257e-06,8.201276763906946e-06,11652,3.451581,-0.586862,-10.154617
0.3389154693692812,0.4907627381653093,-0.2788069643141747,0.0040971308589669,0.0038837880670906,0.006960026692693,9.839983411590484e-06,-8.013351295542629e-06,8.670932061588185e-06,11653,3.648474,-0.220592,-10.114944
0.3233699217235077,0.5227702556630495,-0.2615510254555896,0.0029945263918269,0.0040546713966251,0.0067192486715165,1.0425951961153031e-05,-8.574577422536305e-06,9.167244392144064e-06,11654,3.7505,0.079932,-10.157921
0.2744420660528398,0.4724821294304462,-0.240673197715476,0.00242221744937,0.0043823655884243,0.0062317332582027,1.061403734495379e-05,-8.64595212883985e-06,9.368719027305707e-06,11655,3.807221,0.460591,-10.129779
0.2223858021551251,0.4187164845892386,-0.1832633412242752,0.0022315872231991,0.0047053048660659,0.0055831830266703,1.078336936039337e-05,-8.55085489585386e-06,9.611132185781994e-06,11656,3.833774,1.015683,-10.059047
0.1891742605949971,0.387390002188018,-0.1106705074103551,0.0020064739986375,0.0046938937847809,0.0049069747437886,1.1258601786679262e-05,-8.676267785281304e-06,1.0138524345987257e-05,11657,3.853812,1.625303,-10.047283
0.174003381972229,0.3709045924439095,-0.0391188512785297,0.001625606243408,0.0042393667428913,0.0042692950637123,1.1934061475049118e-05,-9.025868972207778e-06,1.0814609478160484e-05,11658,3.877941,2.196803,-10.031518
0.1262295463409862,0.3384480170073207,0.0229066305311964,0.0012654009733954,0.0034308277794067,0.0036846282633586,1.24545082324035e-05,-9.315144332767515e-06,1.1321642762754595e-05,11659,3.886083,2.731822,-10.017468
0.0404151802829836,0.2892999797826443,0.0632356476552527,0.0010165133577925,0.002382616799866,0.0031437842518991,1.27196778066237e-05,-9.402558145231145e-06,1.1602231583833712e-05,11660,3.90597,3.180367,-10.072535
-0.0185873447510522,0.241141634729421,0.0839044233300482,0.0010256141401133,0.0013401889155529,0.0025825498757545,1.2918133807032824e-05,-9.424234235241238e-06,1.1830299274814315e-05,11661,3.948967,3.491503,-10.175688
-0.0364721722358232,0.2057600205618689,0.1023575189971122,0.0013265068671262,0.0004101170218506,0.001992423405285,1.3079280083920029e-05,-9.465961424315748e-06,1.2001861961862623e-05,11662,4.002784,3.691371,-10.244562
-0.042581276848289,0.1826540671333674,0.1257413244433614,0.0017883909691697,-0.0004572250907662,0.0014223381379753,1.3029661722414157e-05,-9.433449022384568e-06,1.1945785798781276e-05,11663,4.066619,3.826774,-10.249095
-0.0429825666129389,0.1573101716733413,0.1581293238369934,0.0022863577706199,-0.0012550220332249,0.0008994920193441,1.2762827574786708e-05,-9.309191146215262e-06,1.1669474156497344e-05,11664,4.137592,3.98602,-10.232994
-0.0490899643226642,0.120639156134554,0.1925710320253032,0.0026309359942676,-0.0019912357868643,0.0004563725617003,1.248096283882494e-05,-9.209486755919996e-06,1.137934002831646e-05,11665,4.222977,4.168758,-10.211982
-0.0891833072609739,0.1006031765260825,0.1954683031200499,0.0027322879347905,-0.0026610414969419,0.0001154360991493,1.221579665271528e-05,-9.075959935666806e-06,1.1135418741260126e-05,11666,4.313415,4.34564,-10.165115
-0.1462211963206029,0.1228828508502557,0.1757356695447658,0.0026260192401191,-0.0032246308888995,-0.0001201772194357,1.1772808692331125e-05,-8.699428058617121e-06,1.0774172841333696e-05,11667,4.392037,4.412777,-10.09905
-0.1683112211467828,0.1431529493222776,0.1944159155861939,0.0023405267177377,-0.0036731389032302,-0.0002412606156912,1.1013065629651684e-05,-8.036669354179565e-06,1.013339414629402e-05,11668,4.466249,4.238938,-10.036571
-0.1404731795325419,0.1250754758881532,0.2644434597801937,0.0019544098267246,-0.0040179142618592,-0.0002397110172271,9.767229199189069e-06,-7.104834812906469e-06,8.999930568854372e-06,11669,4.518895,3.734496,-9.993755
-0.116387877132031,0.091833620599127,0.3197088458017398,0.0015160861400324,-0.0042657888382475,-0.000120358041794,7.691244839150773e-06,-5.748340809955864e-06,7.029835003424149e-06,11670,4.586776,2.86259,-9.922491
-0.1305853232511181,0.0532554574819366,0.3472600511352302,0.0010340348274469,-0.0044301113755832,9.914477819971822e-05,4.639676030800759e-06,-3.844605634780067e-06,4.104002687667424e-06,11671,4.673827,1.536198,-9.846385
-0.0398067561461339,0.0176891927416699,0.4577812796454115,0.000568486543199,-0.0045387072849253,0.0003846024823112,1.015304805337999e-06,-1.601883599340281e-06,6.221369655149008e-07,11672,4.806458,-0.253749,-9.809554
0.3198213854668007,-0.0195751085268347,0.6882635714756175,0.0002162080677435,-0.0046355322098577,0.0006780752501014,-2.4434372377572378e-06,5.678044353637139e-07,-2.692261869669436e-06,11673,5.01079,-2.615531,-9.855537
0.7840855737613306,-0.1294734721521916,0.9241980164079532,2.0072354464563096e-05,-0.0047417773104243,0.0009525384074301,-5.062058629805565e-06,2.3318147222664e-06,-5.155182764521808e-06,11674,5.215321,-3.914706,-9.836042
1.0228793333128197,-0.3085674117776491,1.1099108471275756,-2.424023400260077e-05,-0.0048552245300823,0.0012127236538883,-6.445786231791532e-06,3.4832241187269406e-06,-6.371848316418424e-06,11675,4.966094,-3.558168,-9.833168
0.9995129276139676,-0.4300815509807224,1.2692427773531805,6.392793979145427e-05,-0.0049718358123066,0.0014628582253031,-6.646159162918922e-06,4.000521180937904e-06,-6.414612398293209e-06,11676,4.556168,-3.294376,-9.856685
0.9117159908795358,-0.4551920581983403,1.360662959563458,0.0002239296078815,-0.0050738129726177,0.0017225368589831,-6.200888165614278e-06,4.111494077460212e-06,-5.840311651230866e-06,11677,4.392841,-3.242845,-9.909691
0.851197417090668,-0.4578739971967106,1.3599455012349164,0.0004250119035689,-0.005161599111188,0.0019917666488674,-5.767537790031587e-06,4.105456877002839e-06,-5.324892029170846e-06,11678,4.404407,-3.316086,-9.948573
0.799532599826204,-0.4648993052292465,1.3320025042744823,0.0006665710716182,-0.0052568165197522,0.0022469527046436,-5.683715975542815e-06,4.15134492125793e-06,-5.2097086701898e-06,11679,4.470988,-3.415193,-10.012657
0.7442972944674513,-0.4722870094755186,1.300244219927526,0.0009192472027382,-0.0053780323777111,0.0024694731235126,-5.983096216081326e-06,4.319858927054668e-06,-5.512476560789014e-06,11680,4.535454,-3.549216,-10.085979
0.6819361921381623,-0.4931392007266768,1.252810464295976,0.0011384012024424,-0.0055505016662805,0.0026350584392385,-6.584437296953756e-06,4.625809268540317e-06,-6.133090288790888e-06,11681,4.667239,-3.733821,-10.154784
0.6184635866492998,-0.5081633806087437,1.2103197063827027,0.0013035765658167,-0.005785787704096,0.0027295879543119,-7.293842974440522e-06,5.002614150553297e-06,-6.8591021859517015e-06,11682,4.810841,-3.930624,-10.22054
0.5602927260016957,-0.5015371287680658,1.171276871809244,0.0014139692492068,-0.0060777812583898,0.002753057944247,-7.946055924578954e-06,5.393860691616908e-06,-7.503912624443491e-06,11683,4.908433,-4.118966,-10.279334
0.5062023514224634,-0.4939677683140814,1.1283126270355877,0.001478889659663,-0.0064186213525246,0.0027046709718692,-8.549720857340219e-06,5.840139906825134e-06,-8.059694575181545e-06,11684,4.955623,-4.277303,-10.318188
0.4586986967330027,-0.490841276973074,1.0896574989031849,0.0015293897246331,-0.0067906134086199,0.0025890029853752,-9.108127516335109e-06,6.337577340503568e-06,-8.537162671118715e-06,11685,4.938786,-4.391892,-10.329745
0.4176530856266455,-0.4854425563071515,1.0485673123108938,0.0015806435152313,-0.0071717266257115,0.0024127111441118,-9.531040492169268e-06,6.787708528927896e-06,-8.869040048134963e-06,11686,4.90567,-4.476577,-10.321962
0.3776843134650988,-0.4888367140964249,1.000333688350883,0.001632603739483,-0.0075343826036187,0.0021844379848324,-9.756790803578031e-06,7.125373383411272e-06,-9.00641882151837e-06,11687,4.874474,-4.536285,-10.291123
0.3383052323681317,-0.5084885402739124,0.9491074563913438,0.0016994345613445,-0.0078323439469115,0.0019234625062007,-9.86497305912038e-06,7.385613640174588e-06,-9.03675233971814e-06,11688,4.876366,-4.557725,-10.248042
0.3016242781347921,-0.5239627554095265,0.8993109744931115,0.0018025262485082,-0.0079972948726759,0.0016612299040929,-1.0044126154011656e-05,7.634715719140594e-06,-9.167372374446732e-06,11689,4.875311,-4.555028,-10.203506
0.2644402324470075,-0.5173684685236236,0.8535655236463567,0.0019495636267147,-0.0079915432566419,0.0014153353117787,-1.0395796362842774e-05,7.868309938431463e-06,-9.516696086656094e-06,11690,4.857367,-4.52555,-10.148123
0.2220590261132375,-0.4994764890481771,0.8098870442189229,0.0021363526293007,-0.0078082051925238,0.0011902056725422,-1.093975633568166e-05,8.103539143214773e-06,-1.0092425585320909e-05,11691,4.851282,-4.504585,-10.072946
0.1776291359735114,-0.4722089899097123,0.7697853682955147,0.0023515771653193,-0.0074427952663655,0.0009916692481884,-1.1666148461420562e-05,8.412067351234112e-06,-1.0856470187630074e-05,11692,4.881059,-4.522521,-9.994925
0.1380793143465935,-0.4276883547373667,0.73423560552117,0.0025699405530821,-0.0069089481817605,0.0008201731452906,-1.240977102636896e-05,8.759389263390085e-06,-1.1627419539412e-05,11693,4.942432,-4.602631,-9.895244
0.1026117081129842,-0.3865348906324116,0.6966167187627572,0.0027710605881929,-0.0062024152354636,0.0006902372171203,-1.2981207064743706e-05,9.04731571325309e-06,-1.2209811469929146e-05,11694,5.077522,-4.735553,-9.777868
0.0648688614112406,-0.3661280003998324,0.6587715434432921,0.0029378721653707,-0.0052984150986959,0.0006336195182721,-1.339465753817426e-05,9.2573235412201e-06,-1.2626285145879504e-05,11695,5.225293,-4.869652,-9.641477
0.0226022647010325,-0.3544228805136676,0.6335824754713284,0.0030393017667754,-0.0041819039585197,0.0006868048366199,-1.3780265237105056e-05,9.416814394625162e-06,-1.303438956046257e-05,11696,5.39188,-4.954237,-9.481062
-0.014402476626686,-0.3393489953926314,0.6198145451999031,0.0030315550922799,-0.0028384269353298,0.0008991257491376,-1.4196075389814062e-05,9.52495092480074e-06,-1.3507633676428026e-05,11697,5.581747,-5.001876,-9.305604
-0.0339126072140086,-0.309607922445301,0.5983761252230384,0.0028952924104055,-0.0012426394541255,0.0013025965659709,-1.4558628850863093e-05,9.542959529483292e-06,-1.3948037403079534e-05,11698,5.76673,-4.995109,-9.130715
-0.0429016639816795,-0.2643645876828967,0.5610773143005057,0.0026361139553276,0.0006405283981309,0.0019097276412275,-1.4753337462212575e-05,9.41701306284404e-06,-1.4233456976185856e-05,11699,5.925761,-4.935504,-8.942932
-0.0601434264893967,-0.2318748587583625,0.5310040295928855,0.0022685975011722,0.0028592225125113,0.0027343988855363,-1.4793658109844422e-05,9.150917982387668e-06,-1.4387043373918084e-05,11700,6.076876,-4.833061,-8.730296
-0.0857863377861666,-0.220589378074029,0.5222202164205711,0.0018293033751285,0.0054805219898664,0.0037825471932162,-1.4730449266540445e-05,8.821111646709961e-06,-1.4446111368133167e-05,11701,6.166824,-4.628109,-8.544922
-0.1040067046591655,-0.2087558859555434,0.5003475805306268,0.0013522511517078,0.008582237354402,0.0050692627440791,-1.448561143092934e-05,8.466850529364462e-06,-1.4301377749283382e-05,11702,6.164657,-4.277337,-8.330152
-0.115160943281567,-0.2071164707497964,0.4589906748437939,0.00087147969254,0.0122595375431674,0.0066211546920955,-1.387405714589925e-05,8.040771159767168e-06,-1.3754804346437856e-05,11703,6.167245,-3.772379,-8.008651
-0.135036695454271,-0.251671117149473,0.439459658281727,0.000448919833554,0.0166419112525686,0.0084608470146496,-1.250282529732679e-05,7.324746212589171e-06,-1.242952379950548e-05,11704,5.985494,-2.889083,-7.635475
-0.1720384600142784,-0.3498308821597007,0.4419644219852562,0.0001752461401681,0.0219020861578887,0.0106120003817544,-9.47072633445691e-06,5.737053892045062e-06,-9.462794865915508e-06,11705,5.710785,-1.049378,-7.091354
-0.2087416574908206,-0.4348587986317032,0.4848852544062079,4.378882262334917e-05,0.0278200439087714,0.0130457551258347,-3.5068932041383397e-06,2.4143599639651524e-06,-3.6376517257050287e-06,11706,5.06582,2.04015,-6.663943
-0.2364086070285101,-0.4226702776257082,0.623512418384838,-6.026080803959858e-05,0.033714102390634,0.0156686026741394,6.257745521666168e-06,-3.3672539380531898e-06,5.842373601707589e-06,11707,4.463073,6.790216,-6.791746
-0.2730093546095095,-0.4320127977676802,0.8125740403675559,-0.0003109710032017,0.0385808360836513,0.018339929069324,1.966402719296363e-05,-1.1775029176470896e-05,1.8766861391418416e-05,11708,4.307859,13.239684,-7.125293
-0.2790605728668727,-0.6544553904748777,0.976785988124048,-0.0009968281725557,0.0408619638047869,0.0208398778325462,3.540660263176607e-05,-2.219173640654475e-05,3.3846986846286763e-05,11709,4.686656,21.542198,-7.06341
-0.2600881745862356,-0.9504447827921588,1.0792363965991043,-0.0022040043771273,0.0398753194984579,0.0228733035609765,5.108551341167886e-05,-3.3216813957812584e-05,4.872843766757998e-05,11710,6.010174,30.965423,-6.198867
-0.2684591534439988,-1.109263127631532,0.9779170512814006,-0.0037944550541235,0.0358905039593263,0.024039743205823,6.375763390860381e-05,-4.3043464937599286e-05,6.050197020187672e-05,11711,8.408785,39.772446,-4.214018
-0.2306453840134835,-1.252147802805427,0.6165928532058853,-0.0055900996618467,0.02928324632765,0.0237626858380475,7.123416348893824e-05,-5.020492633969367e-05,6.701963713441921e-05,11712,12.402916,47.164916,-0.113629
-0.3521100884966301,-1.4766725725751382,0.2711289944769516,-0.007262705968734,0.0210045752585373,0.0212349205378887,7.29964903788453e-05,-5.407311079864775e-05,6.783853468034646e-05,11713,16.84718,50.057968,6.241263
-0.9813692187656634,-1.5723619292633173,0.1473753165606485,-0.0086424429207802,0.0116827570930478,0.0162468167888154,6.996476507465841e-05,-5.474127994461291e-05,6.399226772914698e-05,11714,20.534979,49.451164,12.210636
-1.7843327371909998,-1.2961325595775997,0.1350717469199766,-0.0097375673193589,0.0015916979007066,0.0092519989991527,6.385407653737407e-05,-5.276828666690585e-05,5.731735583181953e-05,11715,23.378371,47.158089,16.719561
-2.150079122005754,-0.6916428178205815,0.1624106805560674,-0.0104925410168655,-0.0084610092132531,0.0009868553713028,5.652608082096034e-05,-4.89144962270011e-05,4.978828712705068e-05,11716,23.494337,43.980661,18.497123
-1.916071650274048,-0.1969077079187206,0.244652521339192,-0.0108699989497878,-0.0172775525495916,-0.0071949178673539,4.909038010551288e-05,-4.365758731359009e-05,4.261140490864939e-05,11717,20.952531,39.795646,17.329164
-1.5942949892208107,-0.0847548652832095,0.2902866364844589,-0.0108641548432918,-0.024282872421074,-0.0145462423174966,4.14653153250459e-05,-3.702927052957951e-05,3.572162365560055e-05,11718,16.814077,34.78135,14.483542
-2.1463301661947805,0.0779637680650974,0.24087960441443,-0.0104854535930756,-0.0294743621904104,-0.0209586277650662,3.307030918100329e-05,-2.9064482719511863e-05,2.843619151520791e-05,11719,12.200035,29.232138,11.244232
-3.5923647299845083,0.559719889865262,0.187100592337113,-0.0098261657566878,-0.0330446143802694,-0.0260621199278843,2.3640735463176584e-05,-2.0081901369423636e-05,2.034723254911061e-05,11720,8.02623,23.007761,8.389175
-4.735339796151244,0.9092049319431,0.1599534387701952,-0.0090766740341228,-0.0356943039139467,-0.0295272208518623,1.3267322498503488e-05,-1.0513657707760976e-05,1.143043318565652e-05,11721,4.973056,16.879011,6.42524
-4.98238928744084,0.9459199112090344,0.1107354087784299,-0.0083050315548158,-0.0375447989745163,-0.0311661416368485,2.2865688302824424e-06,-8.560976038620827e-07,1.910293318828412e-06,11722,2.676972,10.858878,5.402536
-4.873149357510595,0.9732298325843848,0.1005100382577433,-0.0074605854810917,-0.0380931186986085,-0.0308764084282343,-8.77919229123386e-06,8.376148910770314e-06,-7.795423000902525e-06,11723,0.77874,4.896248,4.837019
-4.721595980371186,1.1258445117847504,0.0888074595669422,-0.0064951969580338,-0.0369858198314936,-0.0288493871442276,-1.968946243670836e-05,1.7073653743927554e-05,-1.7450799914177415e-05,11724,-0.984629,-0.938375,4.384216
-4.39776116651765,1.3541680701802208,-0.125873272603418,-0.0053027055364668,-0.0337244434549797,-0.0256437510287162,-3.061423054647842e-05,2.5646603251533807e-05,-2.7103182990979508e-05,11725,-2.626899,-6.689946,4.141386
-4.081605654130153,1.4361597809889746,-0.3694603549349328,-0.0038675511860672,-0.028261211878572,-0.0215758978427137,-4.139273102838208e-05,3.428679128395561e-05,-3.650121465591691e-05,11726,-4.298421,-12.31628,4.395126
-4.034754339455649,1.1525687097539448,-0.079856638436812,-0.0022831353659018,-0.0211416097598881,-0.0167737673946875,-5.105489832391073e-05,4.2248961507421526e-05,-4.480910873960736e-05,11727,-5.836566,-17.676466,5.024491
-4.184113277073564,0.823974052508306,0.5585868612146655,-0.0006403388609379,-0.013066703881314,-0.0115862999847036,-5.818125883652515e-05,4.808583639845096e-05,-5.092861446389056e-05,11728,-7.686566,-22.326008,5.519891
-4.157278222403424,0.7738281533840294,0.4235863273119538,0.000922326632217,-0.0051659307330407,-0.0064874921945171,-6.139211023940597e-05,5.049772185231416e-05,-5.3747846316638297e-05,11729,-9.712805,-25.613965,5.449062
-3.7557567260379177,0.6790965434058149,-0.6965842433802182,0.0023295951052634,0.0018357781546237,-0.001818392500587,-5.981351184768773e-05,4.897205093828981e-05,-5.244940025583671e-05,11730,-9.863332,-25.824585,4.070798
-3.3419160987578973,0.456170288933496,-1.734656299727952,0.0035843410967326,0.0076586694541671,0.0021724729812821,-5.369980461669235e-05,4.396652669183357e-05,-4.716088817282919e-05,11731,-6.765172,-23.284002,2.007102
-2.964748326069501,0.4879825893746714,-1.9572407572151815,0.0046759931453966,0.0118086060250918,0.0052508384197983,-4.4615723548526654e-05,3.678490313934443e-05,-3.920957681032873e-05,11732,-4.487924,-19.300994,2.427521
-1.86634157206105,0.6642375124639555,-1.3834917588303006,0.0056159341944982,0.0137833869525042,0.0072559254645653,-3.473104546583318e-05,2.9117363243231087e-05,-3.048417607998525e-05,11733,-4.273335,-13.411052,0.943757
0.2231673930692041,0.5869067939001855,-0.4808194294850858,0.0063872699364739,0.0134811110199419,0.0081373868609898,-2.583070436477309e-05,2.225748843135989e-05,-2.2584946920832648e-05,11734,-4.314194,-9.660357,1.879925
2.3100070425075097,0.2603389448095073,0.0905821735370681,0.0069338838414243,0.0112109395667902,0.0079875847860305,-1.8900660135423456e-05,1.6620593536303406e-05,-1.651729738353706e-05,11735,-3.30112,-7.05905,1.277979
3.3620120528888315,-0.0681368209306106,0.1113913179177293,0.0072116929075795,0.0077337118857227,0.0071116015124625,-1.4201351565603218e-05,1.2046621143478763e-05,-1.26543459473246e-05,11736,-1.234288,-5.553943,0.749501
3.608230959655111,-0.2365272742346306,-0.0992113634835689,0.007172069752741,0.0044914821231107,0.0061039711915028,-1.139369861140124e-05,8.426091824625984e-06,-1.065035697338628e-05,11737,1.031225,-4.815595,0.282402
3.882497030116943,-0.2434967447199278,-0.323963254846904,0.006811084752917,0.0021049948361715,0.005226744112234,-9.921197263066811e-06,5.943094801770638e-06,-9.797271951854797e-06,11738,2.180394,-5.034556,0.398254
4.283959027038602,-0.2078802997774041,-0.5229652573224498,0.0061832803861382,0.0003574651534983,0.0044106960956718,-9.405804157218671e-06,4.737211533088282e-06,-9.606008359142338e-06,11739,2.677755,-5.295008,0.470468
4.433831078633165,-0.2099945062213508,-0.548206178534738,0.0053742165621962,-0.0008771810924885,0.0036350948491433,-9.569840868721575e-06,4.575022657487649e-06,-9.838477353904488e-06,11740,2.887374,-5.360822,0.538046
4.299525075238896,-0.2119353717324315,-0.4677265352890759,0.0045283486850035,-0.0020490286469695,0.002762009554996,-1.0057510555765842e-05,4.9603566566994725e-06,-1.026060718045109e-05,11741,2.946222,-5.356588,0.552798
4.097620722154471,-0.2110508600319045,-0.4494747935610489,0.0037193315630185,-0.0032823457725636,0.00177253754532,-1.0468897444900477e-05,5.33185769641953e-06,-1.0604925673724534e-05,11742,2.955703,-5.303379,0.563078
3.944276242700594,-0.2355872251484487,-0.4381207740068635,0.0029449811902583,-0.0042827551413101,0.0008047401072219,-1.0591044787635332e-05,5.352781997497709e-06,-1.073984711779242e-05,11743,2.957277,-5.259507,0.631856
3.797100288938799,-0.2568882107216905,-0.4089271242380775,0.0022144850158799,-0.0049722878729571,-8.633584210274202e-05,-1.0546778610040073e-05,5.126643100332878e-06,-1.07739103931005e-05,11744,2.940785,-5.208763,0.742765
3.631466959639964,-0.2631442466529587,-0.3715707679927897,0.0015116687660834,-0.0053133851585698,-0.0008638983519988,-1.051944177103661e-05,4.909229107596157e-06,-1.0831585778668554e-05,11745,2.929871,-5.127444,0.853399
3.4574516907673045,-0.2632166557971739,-0.3191609312346812,0.0008448880840565,-0.005229640930217,-0.0014722108345755,-1.0545547993602422e-05,4.842502321625021e-06,-1.0894810223217176e-05,11746,2.936211,-5.021298,0.993833
3.260664610491465,-0.259519846263679,-0.2776837724027755,0.0002556656207066,-0.0046761635295902,-0.0018631874717387,-1.0659463873698214e-05,4.981575223090224e-06,-1.0975132255568765e-05,11747,2.919613,-4.862172,1.155374
3.078027224583362,-0.25801669417322,-0.2377676412680731,-0.0002342030790347,-0.0035522310784723,-0.00196788355848,-1.0936143317697072e-05,5.3090289096985685e-06,-1.117510200148014e-05,11748,2.906138,-4.641403,1.31057
2.91723757601227,-0.2578805725240788,-0.1931170672115224,-0.0006091639938543,-0.0016982449073006,-0.0016933724353541,-1.1323502938558857e-05,5.714016523310767e-06,-1.1481000341773958e-05,11749,2.892461,-4.340298,1.47624
2.749452652989969,-0.2523357961094238,-0.1574352621040995,-0.0008759509034369,0.000936106564724,-0.0009891374575941,-1.1521707683418174e-05,5.981020796484154e-06,-1.1609851257973167e-05,11750,2.881751,-3.947092,1.668758
2.580373159203284,-0.2503920622267023,-0.1249339800471568,-0.0010752784022748,0.0042935922690535,0.0001532123335025,-1.122582927244071e-05,5.984957733459085e-06,-1.1242664469805652e-05,11751,2.852732,-3.4154,1.898854
2.412335209546754,-0.2559809256062203,-0.0644972545950838,-0.0012713475183629,0.0082788224091686,0.0017291730279424,-1.0473342338570213e-05,5.821264530056665e-06,-1.0400457643746e-05,11752,2.681568,-2.761757,2.21361
2.2456228819454536,-0.26617391276371,0.0405814654709646,-0.0015674727309518,0.0127025525945303,0.0036996780449593,-9.42976562204611e-06,5.5151258696039655e-06,-9.28267799756378e-06,11753,2.371606,-1.840946,2.577874
2.0810820063229274,-0.3109688955801987,0.1441473324578551,-0.0020081268005003,0.0174163278332507,0.006027065246881,-7.951324791770651e-06,4.908495743107123e-06,-7.777911609024457e-06,11754,2.279018,-0.497895,2.864379
1.896816166722325,-0.4139353969957773,0.1848341245463239,-0.0025739107060337,0.0223080532806922,0.0086710652672944,-5.472538225408753e-06,3.778150153712661e-06,-5.299260814882405e-06,11755,1.901163,1.389749,3.045183
1.6871607245112086,-0.5705461621132717,0.2106895502702213,-0.0032407382878535,0.0271763124719645,0.0115450421748069,-9.303296361801088e-07,1.6159714678078003e-06,-7.728242434038577e-07,11756,1.360705,4.044437,3.244691
1.4833035559250631,-0.6536904626542194,0.3872047960580344,-0.003948337660535,0.0317453724830072,0.0145133181501329,7.105810467775537e-06,-2.4673157104348266e-06,7.205939117774215e-06,11757,0.508862,7.96193,3.35859
1.2936341395453108,-0.600946945157333,0.7391645262870026,-0.0046614015987274,0.035557924871986,0.0173537657751907,1.9521257675198424e-05,-9.193961722993978e-06,1.9485205096531488e-05,11758,-0.550652,13.906926,3.165847
1.126019630308717,-0.91757538855632,1.0094060376978171,-0.0053731043999529,0.037909540765701,0.0197253911361433,3.5498948524572625e-05,-1.8476773551562084e-05,3.5160485778661975e-05,11759,-1.861053,22.350577,2.585516
1.002555113096102,-2.013442455521181,1.0424434824242428,-0.0060466649205464,0.0378414196412681,0.02114658031562,5.228711347622848e-05,-2.924566092086401e-05,5.133297288673118e-05,11760,-2.915048,32.789313,1.683248
1.0100618716060776,-3.190632592099212,0.983730308330682,-0.0066272641705059,0.0340189592068846,0.0209359717629849,6.628967498118957e-05,-3.972917816423918e-05,6.432887817562708e-05,11761,-1.877642,42.279618,1.618314
1.2160790348527837,-3.518962944169852,0.8702266915343339,-0.0070870129634674,0.0261638437958773,0.0187753654338587,7.47021165332526e-05,-4.805781226639368e-05,7.145252251984788e-05,11762,2.461658,48.484035,5.762943
1.1850939964066605,-3.1627861425331187,0.6730867127556004,-0.0074203610767461,0.0151896136921939,0.0147395993432779,7.653117777960507e-05,-5.295049068873231e-05,7.195070540431231e-05,11763,8.429225,50.08195,11.599363
0.4025067440839877,-2.880488185407416,0.653142902010961,-0.0076309513625052,0.0025373185752748,0.0089964054620087,7.272711845971815e-05,-5.411222795656638e-05,6.70306391056861e-05,11764,14.464205,48.721378,18.140541
-0.7025160836010592,-2.7275915279421348,0.9212914060317944,-0.0077445407217391,-0.0092266403011668,0.0020033582286347,6.55899621606788e-05,-5.211242689464364e-05,5.921710282005268e-05,11765,18.399508,46.08317,22.642603
-1.252077318259754,-2.1856513699482605,1.1316778676478396,-0.0077695901234108,-0.0189001087427068,-0.0058139289908736,5.744998909886378e-05,-4.787021031020624e-05,5.0970534037533496e-05,11766,19.00447,42.123362,23.673011
-1.0966829042448292,-1.19273726729462,1.0774105387453967,-0.0076973329564928,-0.0267534928165697,-0.0140378402491862,4.937307082152833e-05,-4.213418590931549e-05,4.331525062949326e-05,11767,16.576527,37.259691,21.684487
-1.134297917381967,-0.1574425351773168,0.948030665990677,-0.0075327343927173,-0.032831449235554,-0.0218714351563267,4.101459322890428e-05,-3.524570747838682e-05,3.5740806902695966e-05,11768,12.420965,31.768681,18.411526
-2.3507373218925265,0.7033632878681256,0.8753443732412028,-0.0072866120024978,-0.0376601901696732,-0.0281286919937134,3.161820019796511e-05,-2.7286047739684943e-05,2.734250370499017e-05,11769,8.348527,25.54949,15.05122
-4.270488901044761,1.397746945266999,0.8133991395637942,-0.0069612383838955,-0.0413149956127623,-0.0322184032836346,2.0979404716412635e-05,-1.8436267420406807e-05,1.7840001027403628e-05,11770,5.282273,18.770578,12.522294
-5.383079022518551,1.7880050738618156,0.758962487846109,-0.0065530998039429,-0.0432533403858512,-0.0341422687181199,9.507543974853972e-06,-9.127228068527155e-06,7.585875299881255e-06,11771,3.036269,11.890972,11.308957
-5.343669380549008,1.8899112757296264,0.7027645072031665,-0.0060545546326738,-0.0433228764149401,-0.0340144517559227,-2.250866498270605e-06,1.6753976083801425e-07,-2.941363768910935e-06,11772,1.400974,5.297141,10.713728
-5.146113619587477,2.0750449581309987,0.6421700856502165,-0.0054499889508168,-0.0415118443914785,-0.0323688838718283,-1.3872500239350564e-05,9.183092823777798e-06,-1.335226729567413e-05,11773,-0.15502,-0.993237,10.047068
-5.100539794844343,2.390209903794054,0.6000231204625668,-0.0047324538473503,-0.0378491864853777,-0.0294767590164235,-2.5036401910223867e-05,1.788828505762707e-05,-2.328675215216716e-05,11774,-1.655325,-6.813844,9.375067
-4.942596495730895,2.495811992603838,0.5195143579828726,-0.0039037676581412,-0.0325538049991126,-0.0253343671220123,-3.552095505568528e-05,2.6274075326030698e-05,-3.248364943504628e-05,11775,-3.188147,-12.314916,9.24537
-5.1047416959518745,2.2999121363671224,0.4888531609766339,-0.0029634350182858,-0.0259519465366309,-0.0202872480077049,-4.501029419895291e-05,3.396786262839476e-05,-4.07204038894268e-05,11776,-4.902339,-17.586508,9.567293
-5.644285492337242,2.060268407118914,0.5162844616074409,-0.0019128599864587,-0.0185440541032432,-0.014913640630021,-5.260932596286371e-05,4.000582946400015e-05,-4.7332339914752345e-05,11777,-6.722864,-22.397918,9.692631
-5.857971370297951,1.9456156057341156,0.1484848923486457,-0.0007616459465625,-0.0108243589388309,-0.0096002306876283,-5.678631107399795e-05,4.3198649206570266e-05,-5.0996146659190405e-05,11778,-7.845622,-25.855603,9.30339
-5.47220002537231,1.843452746719612,-0.6575055651339738,0.0004715041056009,-0.0033034980874898,-0.0046185374730499,-5.624635247040803e-05,4.286845416617708e-05,-5.0471311358212025e-05,11779,-8.294261,-26.301176,8.515545
-4.901329567983001,1.7705700146922223,-1.1701083911717869,0.0017563685674928,0.0032810071049025,-0.0002854524986325,-5.092058152587203e-05,3.916588527401723e-05,-4.562873243469126e-05,11780,-6.35765,-23.994698,7.378888
-4.699288270628912,1.8032346004468944,-1.100090299647528,0.0030462375694628,0.0079529998556688,0.0031121164138548,-4.203855139491679e-05,3.287596890960791e-05,-3.759898552921832e-05,11781,-4.501589,-19.450271,7.929878
-4.14789735440652,1.6350766466426043,-0.8942284155712789,0.0042790982729201,0.0103192828897062,0.0054165239768608,-3.1631228713139e-05,2.5328590244424936e-05,-2.8233176177156e-05,11782,-4.591966,-12.758604,6.223908
-1.5858229541502575,1.0738887984373449,-0.7692733632452677,0.0053707743832458,0.0106167553175968,0.006618664922837,-2.1948200500010008e-05,1.8133996743017374e-05,-1.9544767770676748e-05,11783,-5.129934,-8.308982,7.417017
2.2638832656902617,0.507334341654829,-0.6523484050716426,0.0062014850487496,0.0093597785295334,0.0068935205085989,-1.4678567965093851e-05,1.242088783606854e-05,-1.309585394813632e-05,11784,-2.360028,-6.394669,6.047974
4.395361853825641,0.266180557396246,-0.6061629875341984,0.006604528218364,0.0076630928488284,0.0066822445264009,-1.0354374848857964e-05,8.434235161290239e-06,-9.436889029498543e-06,11785,-0.524499,-5.170446,5.747102
4.189074782132014,0.1961684593275988,-0.6050781371073249,0.0065284737512485,0.0060424949065024,0.0061952529280959,-8.438230578498172e-06,5.940508935861431e-06,-8.052262702245696e-06,11786,1.099944,-4.927119,5.512854
3.8408409126874496,0.1319156102359265,-0.5886209126676165,0.0060493677222044,0.0043846588698816,0.0054262601531521,-8.059018317528638e-06,4.769441492688623e-06,-8.015599367793404e-06,11787,1.628129,-5.150697,5.578674
4.119304321246811,0.1101410673220398,-0.6193542433379944,0.0052946616985955,0.0028213159953251,0.0044898325559935,-8.527795616941932e-06,4.70957595589466e-06,-8.603348403001552e-06,11788,1.706758,-5.218617,5.676696
4.174221940803369,0.1081312968399102,-0.661689657693235,0.0045074825173137,0.0014314463546956,0.0035147452256464,-9.173223157017023e-06,5.1422674890654375e-06,-9.229968617225869e-06,11789,1.697177,-5.17849,5.709212
3.955595835042666,0.0819072146616172,-0.6594504120826271,0.0038060469854025,0.000288823273048,0.0025867392566062,-9.439895732789875e-06,5.415034653470932e-06,-9.460041987477664e-06,11790,1.556709,-5.016724,5.710265
3.772243181507356,0.0580927363657326,-0.63203506118756,0.0031749107553192,-0.0004590576756343,0.0017771394838739,-9.316687924796812e-06,5.444674175092431e-06,-9.305792612207613e-06,11791,1.456738,-4.873555,5.735626
3.6037058687860575,0.0357602891570922,-0.5964177151634369,0.0026374761015136,-0.0008402710863198,0.0010942837312285,-9.17989077191846e-06,5.539359947312337e-06,-9.095267403012171e-06,11792,1.427125,-4.783686,5.816672
3.441285799700059,0.0140164193113037,-0.5591678892839487,0.0021925181366752,-0.0010508141586414,0.0004649366785231,-9.269014697739464e-06,5.847019365675254e-06,-9.056190682102652e-06,11793,1.438886,-4.709518,5.91901
3.278760341343684,0.005629346171911,-0.511247806464799,0.0018524199597324,-0.0010871513315895,-8.569297303518048e-05,-9.5806897689249e-06,6.277642098832021e-06,-9.228509511911856e-06,11794,1.494898,-4.656367,6.042416
3.1177253334323494,-0.0114613049353977,-0.4711207548132359,0.0016587395466784,-0.0007708922844795,-0.0004379400559838,-1.0141270267476466e-05,6.797508057389272e-06,-9.668436561588217e-06,11795,1.644817,-4.652907,6.214386
2.9608602721001898,-0.0407513634510219,-0.4390378104503262,0.0016139931630114,7.635527664308275e-05,-0.0004794966031984,-1.1000380408929464e-05,7.427396248066582e-06,-1.0425421537253092e-05,11796,2.000228,-4.762525,6.45032
2.806623798175915,-0.0467430142607261,-0.3415169403885828,0.0016903705525111,0.0017258554829526,-5.79047287369832e-05,-1.1975295314656807e-05,8.027839729926239e-06,-1.1328328529132964e-05,11797,2.492626,-4.916563,6.69433
2.663250458883451,-0.0368392093496413,-0.171853001348175,0.0018635272357884,0.0042829488925952,0.0009064959717144,-1.2760679797213196e-05,8.402293974711362e-06,-1.2092568777905929e-05,11798,2.913945,-4.987353,6.9086
2.509172067862884,-0.0467275859071982,-0.0517650050508,0.0020990832802269,0.0076557017567942,0.0024037874106483,-1.3280362451075656e-05,8.574488842890395e-06,-1.2626316454685331e-05,11799,3.181368,-4.941214,7.097131
2.353130000080101,-0.0700738500115641,-0.009846467580481,0.0023342567152635,0.0117331663811378,0.0044175677175869,-1.3653852656861206e-05,8.762509674547651e-06,-1.2989702241623518e-05,11800,3.351906,-4.751071,7.323915
2.2265163809142137,-0.1086374998151174,0.0947557320393066,0.0024743937154265,0.0162928759982545,0.0068835324860928,-1.3790394069982756e-05,9.029207696138175e-06,-1.3049741771160027e-05,11801,3.417849,-4.387888,7.576852
2.1222325574557352,-0.1215403803151433,0.267305523258125,0.002485841174935,0.021173731943464,0.0097579449423147,-1.331347912315255e-05,9.13834506276351e-06,-1.245087073399695e-05,11802,3.249577,-3.753655,7.858335
1.9975996526386115,-0.1127057960515256,0.3721626194090067,0.002400016849125,0.0262842463968793,0.0130207525695708,-1.1738576380475544e-05,8.720681944390044e-06,-1.076131999330063e-05,11803,3.107485,-2.527423,8.160436
1.8196774085957563,-0.3140739267558962,0.4804094561016429,0.0022677561932265,0.0314278610135034,0.0166004018286557,-8.099941749164286e-06,7.174035704212281e-06,-7.063335788663216e-06,11804,2.704055,-0.407876,8.451484
1.6391671664415606,-0.7094381978496458,0.7647850259149219,0.0021924731333049,0.036331177772963,0.020382619678773,-7.544377413030481e-07,3.488990294909718e-06,2.3388584279496974e-07,11805,1.963277,3.103232,8.758298
1.517983743449841,-0.9338426607958314,1.14536568079362,0.0021837827334273,0.0405202452454169,0.0241099850155962,1.1578551736630138e-05,-3.3744211258114293e-06,1.2320446131783338e-05,11806,1.313586,8.624527,8.819048
1.4649236041884697,-1.11081344411568,1.3906358012439206,0.0021449883417574,0.0432452042499678,0.0273359151815643,2.846850462601917e-05,-1.3713356313343031e-05,2.8640276756352865e-05,11807,0.774582,16.780248,8.492366
1.557670755616349,-1.6869849256819662,1.4145368175615085,0.0019632128729054,0.0434862540762664,0.0294309022561108,4.727464495189911e-05,-2.6388310379149078e-05,4.6497156734789615e-05,11808,0.78512,27.797135,8.097985
1.7305971817223569,-2.433591316206461,1.3024771412149845,0.0014579939417811,0.0398192060983549,0.029488986770221,6.387344511497089e-05,-3.893412336360104e-05,6.186478675802062e-05,11809,2.984633,38.641719,8.828757
1.734761012502533,-2.743103095387804,1.2093960656598042,0.000584955750227,0.0319270687416021,0.027093042825927,7.445463309220529e-05,-4.873930140134567e-05,7.110918531088026e-05,11810,9.413075,46.623626,12.997428
1.5337176506438022,-2.6241423979451213,1.148817199531292,-0.0005412890134912,0.0207415207956466,0.0223570798244385,7.7271840622915e-05,-5.4214624789004895e-05,7.26592615327882e-05,11811,16.193621,48.687531,18.812414
0.85269665225633,-2.452983873961714,0.9694322579399336,-0.001773553927638,0.0077321207399042,0.015506100821084,7.332058192690146e-05,-5.510641535333698e-05,6.772104168076349e-05,11812,21.031036,46.820094,25.25
-0.7842974075346174,-2.1867311173832107,0.724422200493317,-0.0028555606295205,-0.0044678800456357,0.0071409693203012,6.551017128815032e-05,-5.220262979556589e-05,5.943964471192463e-05,11813,23.82807,43.897358,29.061471
-2.7064637416740207,-1.658707051835479,0.6076859100259524,-0.0036741757451782,-0.0146179463692625,-0.0021817950911282,5.6743950346541935e-05,-4.679192880574714e-05,5.083188960953357e-05,11814,22.895363,40.201707,28.701525
-3.5301567460334606,-1.0428738114429932,0.5998658650342377,-0.0042789013222823,-0.0229810707057551,-0.011922856852521,4.839164719131687e-05,-3.99984289862471e-05,4.317640583692481e-05,11815,18.726039,35.641323,25.079499
-3.1642694647550487,-0.4213944262618608,0.5544087241874438,-0.0047007400308591,-0.0295666794959733,-0.0210814358756129,4.001984067394461e-05,-3.224418776090081e-05,3.584714502110356e-05,11816,13.606988,30.348262,20.320996
-3.002126661488351,0.3472369127099102,0.4482331090169905,-0.0050288735319317,-0.0348515316044793,-0.0281914507583023,3.0268386835666075e-05,-2.336488894914098e-05,2.731534299522311e-05,11817,9.126298,24.137127,16.129544
-4.066453863413809,1.0462209428549054,0.3568739270573039,-0.0052803655512814,-0.0388520132985329,-0.0325551898657787,1.828977932724628e-05,-1.3353855863408984e-05,1.660504170585615e-05,11818,5.827283,16.992319,13.494335
-5.6517093856794,1.3174418790119933,0.2603030198030597,-0.0053786789741453,-0.0409461362174443,-0.0342525761947793,4.511923063582263e-06,-2.797270718284992e-06,4.034614416078862e-06,11819,3.616292,9.981787,12.236772
-6.305702095070321,1.3895542166159809,0.2207894219706464,-0.0052746099170897,-0.0408815765333828,-0.0335594164623221,-9.796906251561253e-06,7.469858330431487e-06,-9.18602812811072e-06,11820,1.787921,3.174222,11.523718
-5.88717205155571,1.6011475545582408,0.2539018181068299,-0.0049056794508754,-0.0385174428131842,-0.031351274966886,-2.3416246645327545e-05,1.693768283481231e-05,-2.1799462348294926e-05,11821,-0.101542,-3.250329,10.66567
-5.418311682847245,1.8625409977279404,0.0500980223656774,-0.0042438941525881,-0.0338862835966203,-0.0280554014967639,-3.573932505529098e-05,2.5674499107373888e-05,-3.3073692312160474e-05,11822,-1.827998,-9.254992,9.837346
-5.08204410339776,2.291056675984586,-0.2290741115420473,-0.0033131843920565,-0.027364477803452,-0.0236292506369727,-4.659120650043346e-05,3.391699026826493e-05,-4.273746166089187e-05,11823,-3.271784,-14.863,9.647923
-4.756344568184989,3.126541989824017,-0.2996084796883079,-0.002139585473593,-0.0195253490775697,-0.0184480152354184,-5.541652117907329e-05,4.111399406846719e-05,-5.037818286735688e-05,11824,-4.594455,-19.685284,9.80094
-4.937033843898441,3.9083606695814574,-0.8552029882648109,-0.0007735295437704,-0.0112834728211383,-0.0130958184898521,-6.085813747319671e-05,4.580535126577337e-05,-5.498483461496094e-05,11825,-6.547291,-23.595366,9.830293
-5.240565584526349,4.046748446046662,-2.0894354534034463,0.0007305044127766,-0.0033386741246812,-0.007968085249737,-6.150231345308523e-05,4.686741811495199e-05,-5.53454120953363e-05,11826,-7.883192,-25.649045,9.2317
-5.288580685481613,3.703691676882883,-2.9305845493394767,0.0023136543023421,0.0038151432292216,-0.0033710580302939,-5.687045384537581e-05,4.416576264848623e-05,-5.095512928002469e-05,11827,-8.316294,-24.970761,8.244125
-5.156808784913206,3.350048291095895,-2.8248089030197834,0.0038760214614901,0.009433496046177,0.0004020598816037,-4.76833987663767e-05,3.804237926792547e-05,-4.251378736298193e-05,11828,-4.103075,-21.632661,5.981192
-3.41814769653903,3.1882981363197613,-2.003565574650368,0.0052726523107441,0.0126176108048372,0.0031422518454058,-3.588379658654446e-05,2.94604406982106e-05,-3.191018063951512e-05,11829,-3.35808,-14.738067,4.984925
0.2309510205388647,2.892794639082525,-0.7873253407251575,0.0064125614890673,0.0131050501164294,0.0047405612160486,-2.437187439000236e-05,2.0499217792966667e-05,-2.1747476706353615e-05,11830,-4.268787,-8.935218,5.609485
3.02997438015626,1.7797706351928362,0.0534401491339201,0.007256321377145,0.0113200004893232,0.0052227435113287,-1.5777434492775378e-05,1.3354000959835977e-05,-1.4286057025839265e-05,11831,-2.112043,-6.270639,5.099812
3.711094935795753,0.0749464975910689,0.053279349247311,0.0077625043508119,0.0081530743419634,0.0048316026497891,-1.1058315855745675e-05,8.742201493749691e-06,-1.0393628233341376e-05,11832,0.805599,-5.195371,4.694277
3.8947708643252135,-0.9593165361640092,-0.1098028770820042,0.0079143908498988,0.0053220307271631,0.0041004042346709,-9.42498347938778e-06,6.089172085763169e-06,-9.380368325955536e-06,11833,2.279271,-5.779447,4.813315
4.143222397854949,-0.9932630505227904,-0.0700033446104141,0.0077279955649721,0.0035471998121171,0.0032768894287898,-9.502054576254857e-06,4.882873624154931e-06,-9.843401051075694e-06,11834,3.021772,-6.145915,4.950083
3.958126019816478,-0.9103198016414812,-0.1339255053671734,0.0072586413638285,0.0025027594966983,0.0023357819457041,-1.0172040403056414e-05,4.773433710101992e-06,-1.061132026736444e-05,11835,3.339378,-6.35735,5.001023
3.816936538916681,-1.0268233879353967,-0.1957485400122216,0.0066314165309386,0.0020044088690403,0.0013461300911395,-1.0705513590540703e-05,5.055345284142945e-06,-1.1095519488079586e-05,11836,3.512587,-6.373969,5.046366
3.8242517949939225,-1.035166202871412,-0.1779955879924386,0.0060632268683729,0.001499719251774,0.0003348762258065,-1.0945071499488384e-05,5.222192554028202e-06,-1.130442340625429e-05,11837,3.546675,-6.344498,5.062848
3.628544202886138,-0.9720761504091704,-0.2091883322871192,0.0056440901320413,0.0008087848012695,-0.0006354206749222,-1.124660142515718e-05,5.428614631276245e-06,-1.1592452240674912e-05,11838,3.538374,-6.300877,5.087076
3.452154337444372,-0.9522753340181817,-0.2176555609698194,0.0053340623690949,0.0002450103110084,-0.0014310839975059,-1.189035267791841e-05,5.913868422739773e-06,-1.2180502193039276e-05,11839,3.577014,-6.309136,5.179359
3.3289449650375604,-0.9310945691497337,-0.1868292516098172,0.0050869143655339,-0.0001368452610422,-0.0019828039373978,-1.271558392301452e-05,6.496111176812599e-06,-1.2936011125240683e-05,11840,3.624793,-6.354533,5.306837
3.150147610833057,-0.9132077516224332,-0.1601526308881125,0.0047847143277279,-0.0003358295367811,-0.0022628789588808,-1.3363917081434502e-05,6.8221874331088845e-06,-1.3573454474050895e-05,11841,3.720149,-6.395456,5.432775
2.9887541127135666,-0.9053325971819914,-0.1368316122865842,0.0043949475336735,-0.0002775070834588,-0.0022083842253426,-1.3698949035745332e-05,6.812926008137774e-06,-1.3961933206256397e-05,11842,3.842333,-6.423053,5.576961
2.82874455032651,-0.8964674190051172,-0.1076531698160463,0.00398526451907,0.0001067645402205,-0.0017386716684724,-1.3845124521940346e-05,6.630649966289512e-06,-1.4184595373849071e-05,11843,3.964686,-6.401826,5.732167
2.6704995196271053,-0.882601992131415,-0.0554820487065273,0.0035976508833343,0.0009705054873527,-0.0007793103954939,-1.3980433448741196e-05,6.43492829131098e-06,-1.4407622548807193e-05,11844,4.07213,-6.291391,5.911392
2.521038789319989,-0.8614247603305638,-0.006046154549134,0.0032938666921994,0.0025715116289821,0.0007500121120055,-1.4217427815452362e-05,6.350763043301179e-06,-1.4734598182657213e-05,11845,4.16153,-6.078554,6.097349
2.37021573743548,-0.8447376116921477,0.0423335334848257,0.003087177856307,0.0050667013333167,0.0028625224150399,-1.4472359997065948e-05,6.426052668629994e-06,-1.503386614986104e-05,11846,4.225615,-5.75055,6.31585
2.2559982926371496,-0.8344171220625292,0.1521865603279105,0.0029231448393566,0.0085258829412317,0.0054899222912938,-1.4413351676872034e-05,6.470560681323246e-06,-1.4960718542830402e-05,11847,4.188308,-5.185103,6.576186
2.1739519081755176,-0.8071804521873442,0.3173936706661861,0.0027407412376398,0.0130468490034036,0.0085097865258991,-1.3501054842410591e-05,5.980975917946287e-06,-1.407807421344552e-05,11848,3.96614,-4.293668,6.872578
2.0559342139607555,-0.7945596035544015,0.4894574009424715,0.002442386925524,0.0187105413741751,0.0117053291156253,-1.0987207622979234e-05,4.410706995459488e-06,-1.1734295416502207e-05,11849,3.882058,-2.777544,7.052089
1.8793953421050027,-0.9174453264416872,0.6836953863704073,0.0019831282167788,0.0252201203148999,0.0149325583804317,-5.807613812930027e-06,1.358798853202414e-06,-6.812094999209303e-06,11850,3.405545,-0.403708,7.131133
1.7055088920802874,-1.197633657346837,0.878447369708143,0.0013804575184175,0.0318324107060555,0.0181182342575428,3.5768221931275087e-06,-3.907188070449258e-06,2.294974781458226e-06,11851,2.490375,3.302041,7.222481
1.534173702651816,-1.4740693960153426,0.9943144968589752,0.0006481180262355,0.0374086195245964,0.0211342296515127,1.8480539736654743e-05,-1.2496532157673468e-05,1.6809292729227225e-05,11852,1.606476,8.855911,7.143758
1.3511230834856924,-1.7072093545133409,1.0225561088374997,-0.0001746735635207,0.0401850471662813,0.0238313114344509,3.834958374899667e-05,-2.471491511981693e-05,3.601737794253781e-05,11853,0.749229,16.935329,6.774739
1.3317961256889106,-2.160391203885513,0.9963244621949328,-0.0010716652545189,0.039340883706662,0.0259073139941301,6.005502428653876e-05,-3.9184489625512656e-05,5.671926941226928e-05,11854,0.357571,28.131714,6.35568
1.5044569399546082,-2.8710155741712318,0.9375273733256896,-0.0020558671230142,0.035063149494475,0.0268588168729024,7.912267607043033e-05,-5.341826379685965e-05,7.446494790459054e-05,11855,1.938615,39.650673,6.371771
1.5590653436410855,-3.315550526283181,0.8738796341994992,-0.0031214928873225,0.0276288806426317,0.0260242639668355,9.171414143080504e-05,-6.49466027837861e-05,8.55138850609575e-05,11856,7.198558,47.998298,10.18211
1.3728522484895218,-3.2434307167961176,0.7755559875099186,-0.0042562373860376,0.0179046272896518,0.0224864261462673,9.596665291759967e-05,-7.193702963590931e-05,8.823339417080736e-05,11857,13.169731,50.251114,15.920256
0.8483322512416134,-2.982525006514984,0.6114790920055935,-0.005426414231842,0.0067582820080364,0.0160580951696023,9.26697687049604e-05,-7.37054452461345e-05,8.374542733744278e-05,11858,18.503142,48.948624,22.872068
-0.4417937356966218,-2.593459570851654,0.4849932650615416,-0.0065660237851257,-0.004910662174521,0.0073817699315068,8.51007876084216e-05,-7.124614313229366e-05,7.555842914825564e-05,11859,22.110666,46.292794,27.640577
-2.156856901400584,-2.0706574841886662,0.4809811002017148,-0.0075857327034063,-0.01616759931631,-0.0025357205175293,7.68595446687727e-05,-6.637443424986016e-05,6.731417932695442e-05,11860,22.030788,42.307852,28.257493
-2.917642021011273,-1.659420674088988,0.5498824423016144,-0.0083579950244761,-0.0261582338132798,-0.0119084923652328,6.907127112080504e-05,-5.9892647037722346e-05,6.011563749993401e-05,11861,18.639596,37.349656,25.547762
-2.587916249598916,-1.090407293309605,0.5821408107884516,-0.0088179662326645,-0.0342260908391423,-0.0198343412812564,6.023681210542018e-05,-5.1253227217213176e-05,5.244719876317174e-05,11862,13.809285,31.676105,21.605028
-2.8801760009008337,-0.114500857669142,0.4488059507905388,-0.0089693537347648,-0.0400137574518314,-0.0263581820160191,4.842556741339966e-05,-3.974905956391913e-05,4.2342130758831696e-05,11863,9.504675,25.278525,17.866492
-4.393345222044363,0.6384636318477627,0.2047534501328875,-0.0088256540098359,-0.0435931426420356,-0.0313100872634393,3.292581733472368e-05,-2.545129703091241e-05,2.8997056920802795e-05,11864,6.139559,17.925612,15.563781
-5.694494994438228,0.8058283811473905,0.0464236918379254,-0.0084440878893593,-0.0456515181905446,-0.0347583461835114,1.4456508867676709e-05,-9.374496865925586e-06,1.2940598257886247e-05,11865,3.759676,10.698649,14.694315
-5.99748456855208,0.9588472158272484,-0.00071828058444,-0.0078371431721591,-0.0462630614100075,-0.0366020307305315,-5.240959766250491e-06,6.894087230308277e-06,-4.329144883058549e-06,11866,1.589941,3.569051,14.228275
-6.01166290607605,1.5213883821330936,-0.0027654559587388,-0.0069666805454508,-0.0449190351352085,-0.0364659517027939,-2.4042230543649527e-05,2.185601990191233e-05,-2.0856740287817983e-05,11867,-0.570713,-3.259098,13.480066
-6.254142463211253,2.372521351974328,0.0190513640530958,-0.0058152938157962,-0.0413416255468006,-0.0342576304343975,-4.033063533474839e-05,3.468228853166906e-05,-3.506961462422927e-05,11868,-2.360213,-9.70752,12.472475
-6.545244944377767,3.189708005890079,0.1801930780645858,-0.0043632926977371,-0.0352022103705722,-0.0300704131741509,-5.337303753358547e-05,4.5067877468503965e-05,-4.6280352594635005e-05,11869,-2.707182,-15.47143,11.41879
-6.778814833042759,3.582302333508408,0.5334431727256547,-0.0026386174282033,-0.0267102719470191,-0.0241717280059657,-6.266298265703757e-05,5.2518636033204526e-05,-5.416317745948226e-05,11870,-4.195997,-20.544772,10.619288
-6.761427160791103,3.5100250097614607,0.6054661346954269,-0.0007336139880061,-0.0167973116641884,-0.0171402022186833,-6.744065083783459e-05,5.640465468406948e-05,-5.813708907516021e-05,11871,-6.805251,-24.54252,10.42646
-6.189210655119733,3.2420806915494267,0.0768056036327,0.0012250201359838,-0.0067555038274168,-0.0098991828295211,-6.715595802519916e-05,5.65557702702886e-05,-5.766669881419615e-05,11872,-8.659464,-25.206082,9.76896
-5.714048311501432,3.0487473747301226,-0.460503579714665,0.0030460494701677,0.0014240512709705,-0.0038595673546385,-6.19843111102599e-05,5.312983990096792e-05,-5.290713474773249e-05,11873,-6.538748,-22.703655,8.181801
-5.545223414158061,2.96047201620162,-0.5001483464135972,0.0045987945848033,0.0067975266478819,0.0003057142371409,-5.302826191024524e-05,4.649627195510816e-05,-4.497947375634178e-05,11874,-4.963015,-18.17345,8.452428
-3.962163742197263,2.3976112897046016,-0.385453924987636,0.0058153049429481,0.0095750963418071,0.0027080304046453,-4.24020492147462e-05,3.787632757439276e-05,-3.584753113092339e-05,11875,-4.866337,-11.859199,7.614969
-0.4616817151668371,1.1998608242793989,-0.4123233130498573,0.0065990885457753,0.010027743151009,0.003540650840798,-3.260194480768213e-05,2.931622073936116e-05,-2.76263956646287e-05,11876,-4.29485,-7.919709,8.268156
2.7975325930439783,0.2903668592314615,-0.4217658497206655,0.0068551411046316,0.0090508711676722,0.0034707641858526,-2.531396024577693e-05,2.2413586701221785e-05,-2.1683190014292223e-05,11877,-1.236878,-6.046272,7.0121
4.337473695629603,0.0671467011567656,-0.3802279012426033,0.0065781986042488,0.0071326730770284,0.0028391959196976,-2.0960637670000983e-05,1.7544838231689484e-05,-1.838355689202837e-05,11878,0.960671,-5.225275,6.778723
4.7181575123130255,-0.0949263212515937,-0.408215502478672,0.0058618885129176,0.0042899901396702,0.0016227194488761,-1.9075005738736885e-05,1.445226193891262e-05,-1.7297495856790158e-05,11879,1.876255,-5.603496,6.922165
4.647263237989159,-0.3901286316458353,-0.6036169575444863,0.0048986288329555,0.0010868766141762,0.0001829398678966,-1.873996942781609e-05,1.2896837297651096e-05,-1.7465513789329105e-05,11880,2.171755,-5.826714,6.970882
4.400151184773929,-0.4809158183771825,-0.904244984323964,0.0040326831879978,-0.0015588235427955,-0.0008874104589528,-1.895144064072409e-05,1.2484324384648834e-05,-1.786684581232297e-05,11881,2.194669,-5.879257,7.061748
4.252905772955905,-0.4316731020657292,-1.055730374681987,0.0034113839742702,-0.0032296294091806,-0.0013295423785083,-1.8950742128893423e-05,1.2459501648763804e-05,-1.7881181617060543e-05,11882,2.101183,-5.740949,7.094652
4.093880764055087,-0.4223017244423865,-1.060942679569324,0.0029774951330631,-0.0039262490796941,-0.0011576931174988,-1.848600899870294e-05,1.222719209268958e-05,-1.7428222719085287e-05,11883,1.896704,-5.480992,7.138285
3.852287291673221,-0.4069013710654097,-1.0918061253399154,0.0026816297495696,-0.003788692593981,-0.0004931431866653,-1.7755920699328245e-05,1.1796438169961194e-05,-1.674145802590079e-05,11884,1.736668,-5.233692,7.208373
3.6867043085379128,-0.389181370871724,-1.0949358948607697,0.0023809830366421,-0.0033355533754665,0.0002768610656471,-1.7031559036014542e-05,1.1399076693193665e-05,-1.6052749852201837e-05,11885,1.641118,-5.019832,7.316086
3.509674695589951,-0.3804295512542788,-1.0183228709075105,0.002021380865357,-0.0027243308316769,0.0010074416937297,-1.6480212384809942e-05,1.1055718191793688e-05,-1.5546715470355975e-05,11886,1.618575,-4.85297,7.437329
3.3239710176414343,-0.3685480802943581,-0.9411074053394568,0.0016573424922699,-0.0017340181425717,0.0018027979718735,-1.621480845497839e-05,1.0705878332512369e-05,-1.537771811539721e-05,11887,1.64793,-4.730037,7.566936
3.1684939004970247,-0.3563961028410413,-0.886643867181618,0.0012823878070257,-0.0003230973845243,0.0026336157717545,-1.6257478805920643e-05,1.0431974100162391e-05,-1.554212374347869e-05,11888,1.734701,-4.652503,7.69782
2.9971745284625237,-0.3345199300721084,-0.8236971193431244,0.0008755789822491,0.0015456651023654,0.003452598369694,-1.6517116992049984e-05,1.035548389440984e-05,-1.5884033290170248e-05,11889,1.945132,-4.636682,7.874326
2.843472584130449,-0.3176030591874507,-0.7330900547947192,0.0004371125557337,0.0039065613514517,0.0042544651991667,-1.6862034176239504e-05,1.0427605728248572e-05,-1.626900714512495e-05,11890,2.206782,-4.62391,8.074431
2.687847407661131,-0.3152664468547558,-0.6273333384959897,-2.886526346669452e-05,0.0067303550067052,0.0050402923537409,-1.7166341991449657e-05,1.0471339584340167e-05,-1.6626559558584323e-05,11891,2.423017,-4.561536,8.258146
2.5325337247591526,-0.3261866618387187,-0.5219595092533418,-0.0004974851535613,0.0100422441754444,0.0058712105205099,-1.7291943100832558e-05,1.0363160290378803e-05,-1.684408587029133e-05,11892,2.571214,-4.419802,8.446971
2.435325874771925,-0.3550363695886536,-0.3580336567358461,-0.0009160456300568,0.0139075139407427,0.0068836183980574,-1.7066240766912703e-05,1.0076472941649844e-05,-1.6726390092560846e-05,11893,2.628807,-4.106367,8.663799
2.377615306981176,-0.364311167830536,-0.1462997326789962,-0.0012575066774622,0.0182904465922964,0.0081653017395088,-1.6279497568724827e-05,9.599468701112688e-06,-1.6031472939924595e-05,11894,2.432063,-3.547006,8.902658
2.275697694500983,-0.3578707819505161,-0.0296274761468858,-0.0015173971457076,0.0230569276912667,0.0097686755876742,-1.462106639798896e-05,8.834015009340664e-06,-1.4429864148046218e-05,11895,2.229298,-2.481502,9.111573
2.092019653354864,-0.4884691249495819,0.0077022061221455,-0.0016815495177747,0.0280158112159026,0.0117916383663785,-1.127562380662106e-05,7.3756535679995075e-06,-1.1111288646875942e-05,11896,1.84795,-0.588632,9.363579
1.9051238309443688,-0.7370325147089193,0.1277054149799406,-0.0017374708972158,0.0328667490390497,0.0143595020581571,-4.476091647799031e-06,4.17709465772124e-06,-4.366570070036755e-06,11897,1.131211,2.488407,9.708404
1.7681104631541291,-0.8815467339198988,0.3013875522463989,-0.0017040802683168,0.0371228651518384,0.0173639345723442,7.71072326124339e-06,-2.243673687414048e-06,7.581130800772148e-06,11898,0.275669,7.366229,9.774656
1.647371450426202,-1.112453484743189,0.3800691159302278,-0.0016351328065626,0.040054009363301,0.0204295088074975,2.5526844553432654e-05,-1.2707403574298922e-05,2.4769237338799506e-05,11899,-0.546871,14.497308,9.425633
1.603132445011788,-1.760340125349241,0.3726943195039258,-0.0016201520688331,0.0406070030042838,0.022983722180714,4.6592548888775045e-05,-2.634601127686024e-05,4.473082724892637e-05,11900,-1.238359,24.439159,8.973363
1.6939435211773062,-2.4930637376601394,0.3595387052587207,-0.0018030862358945,0.0372802344096045,0.024119830645877,6.66858874785009e-05,-4.071141977999132e-05,6.334892945963251e-05,11901,-0.644795,35.540383,8.576323
1.829842145141288,-2.77973971869112,0.3415985661770686,-0.0022249106480253,0.0297444178274287,0.0233571331866677,8.14032574346594e-05,-5.286953565578624e-05,7.643751968911889e-05,11902,3.001096,44.771425,10.559428
1.836597738672057,-2.712388512510905,0.3107904618820424,-0.0028144000424351,0.0189782295445248,0.0206640697212774,8.7762886376173e-05,-6.045343282039784e-05,8.128214169131134e-05,11903,9.127891,48.68315,16.32592
1.423076160186587,-2.597339499711666,0.2900116725605252,-0.0034720282588407,0.0065130912130711,0.0159770863104419,8.532119896327461e-05,-6.230090757900926e-05,7.7734891507799e-05,11904,14.324814,47.415259,22.375826
0.3757533927444918,-2.3830492520053506,0.2813933759057144,-0.0040140030184904,-0.0049091231709651,0.0094208883483409,7.637607309654909e-05,-5.8856081656478746e-05,6.833209834311492e-05,11905,18.509898,45.164844,27.759073
-0.8973367409280703,-2.1117212288046323,0.2880957864650565,-0.0043666158711557,-0.0140466893624371,0.0013429322373053,6.446219821704353e-05,-5.175792365504087e-05,5.669590058019788e-05,11906,19.52598,41.666361,29.5406
-1.3967317738001626,-1.861372302486373,0.3467981687456031,-0.0045794655757078,-0.0212850563136714,-0.0076512318046619,5.200775794108745e-05,-4.258971970829997e-05,4.51958844516691e-05,11907,16.997249,37.07675,27.464909
-1.121603737632612,-1.1961228104731374,0.4304865580327,-0.0046888170829959,-0.0267932993923198,-0.0164431432047719,3.94838216351532e-05,-3.215128092117025e-05,3.41514189307531e-05,11908,12.536568,31.799771,23.359834
-1.7393954846015682,0.0235732685097731,0.4368064238015966,-0.0047760024410248,-0.0313052928786951,-0.0232526426373208,2.6429787980555725e-05,-2.084052444027476e-05,2.288624689467352e-05,11909,8.132927,25.857934,18.947498
-3.946953918225312,1.0148602288313051,0.3636882722876311,-0.0048626012031793,-0.0349957173391612,-0.0273221140061355,1.2741687325835858e-05,-9.258597483704366e-06,1.1055448157926077e-05,11910,4.829042,19.075501,15.511232
-6.038386461755467,1.2049931355194945,0.3093572105007627,-0.00489340658393,-0.0372933502814445,-0.0289567748114587,-9.819590975207851e-07,1.7650443405762873e-06,-9.424346437402104e-07,11911,2.631691,11.841844,13.788497
-6.528249605033384,1.1529215008829925,0.2987260275024878,-0.0048301166311658,-0.0380376572457344,-0.0286152700617824,-1.3805751634035478e-05,1.1483293733752722e-05,-1.22918627366787e-05,11912,1.258612,4.920666,13.113327
-6.119069198413997,1.5430842216227596,0.2904512435012739,-0.0046175801130282,-0.0371702278159489,-0.0274460793206826,-2.479277889602257e-05,1.941120629723425e-05,-2.2085602866443262e-05,11913,-0.125466,-1.672527,12.581092
-6.099186378415359,2.1200701528592,0.2727393803921851,-0.0042005478029754,-0.0346107794304527,-0.0258466476080416,-3.336722149247955e-05,2.5520886423842097e-05,-2.9674106249035988e-05,11914,-1.652248,-7.706501,11.966511
-6.432845332164387,2.387149445888292,0.2576730620439399,-0.0035303423324977,-0.0304014790022048,-0.0233642375701415,-3.964104913095242e-05,3.0246484952904844e-05,-3.505967439861862e-05,11915,-3.1558,-13.375413,11.79114
-6.406310048116233,2.305188701224612,0.2451354685355633,-0.0025258090804481,-0.0245651384800447,-0.0198268038824285,-4.4022788477500745e-05,3.387509599305166e-05,-3.8660559621779695e-05,11916,-4.87935,-18.630832,12.13655
-6.042405187598104,2.1402692390167366,0.2240887876697936,-0.0010735119206688,-0.0171327301791902,-0.0149534566066428,-4.6426630627113605e-05,3.602585756803985e-05,-4.05536567741586e-05,11917,-7.048336,-22.592565,12.397082
-5.745060716101036,2.1578603821161124,0.213707676904091,0.0008076501176515,-0.0084710236766081,-0.0088413394095599,-4.618741007670303e-05,3.601751557101283e-05,-4.0235129340501305e-05,11918,-8.828719,-24.988487,12.166585
-5.386824111425372,2.3056541085812827,0.2115149960510844,0.002950735899932,0.0006669252190426,-0.0021397943949242,-4.280013550135242e-05,3.3557939677860064e-05,-3.7234367527994125e-05,11919,-9.133462,-24.86615,11.344708
-5.051388585758166,2.354733997132295,0.1309569621050757,0.0050993566538473,0.0091814222124352,0.0044107297170173,-3.653802788676609e-05,2.8871844748193547e-05,-3.176560128976917e-05,11920,-6.761113,-22.301716,9.613452
-4.808738666509091,2.247098997438747,-0.0303510144454374,0.0068321257387151,0.015427849404277,0.0097375436008749,-2.8442330074824003e-05,2.255910589890233e-05,-2.4763874786892386e-05,11921,-4.106405,-17.363512,7.874994
-3.5539298967575057,2.016231085944745,-0.1255664503165244,0.0079621189884232,0.018725066542433,0.0132979485238005,-2.012168926377185e-05,1.572001467972915e-05,-1.7653416355422987e-05,11922,-4.003456,-10.791925,6.474211
-0.8197936111511961,1.5485515764437014,-0.1089082412365753,0.0085556712335503,0.0194407540448225,0.0151695715403654,-1.3364324510793733e-05,9.776873938565908e-06,-1.19900416672689e-05,11923,-2.786825,-6.950576,7.023531
2.116370892058133,0.893772417701523,-0.0890495280240012,0.0086836887501959,0.0181591490935902,0.0154576036114833,-9.244436164143556e-06,5.6522668806847145e-06,-8.695485770398208e-06,11924,0.682701,-5.370714,6.118049
4.148722987742814,0.4598051931292451,-0.0944212615954776,0.0085455170570525,0.016203109632054,0.0145904657824496,-7.551932922277195e-06,3.287563958108988e-06,-7.553690324771951e-06,11925,2.340636,-5.795319,6.402507
5.038697730541939,0.3750667275416471,-0.0877620417227878,0.0082358641786834,0.0141690611333738,0.0128506835918,-7.349637120306117e-06,2.167516060231169e-06,-7.683275522962375e-06,11926,3.181417,-6.346547,6.62855
4.92318242903855,0.3797316500902153,-0.1306256293377524,0.0077248773223792,0.0118497429805923,0.0103511341259361,-7.813692823179897e-06,1.947858675122318e-06,-8.282031175671707e-06,11927,3.715155,-6.629183,6.635231
4.47822496901769,0.3509972200933517,-0.2621406534588383,0.0070777150833117,0.0093953559348243,0.0075534412089118,-8.401603730096059e-06,2.330672809538416e-06,-8.83525543965525e-06,11928,3.953741,-6.686233,6.68142
4.287400305957915,0.3151115079876238,-0.388614840232088,0.0064015495629231,0.0069450556333819,0.0052060639768298,-8.811102580541105e-06,2.898698425944215e-06,-9.123162699255258e-06,11929,4.045064,-6.654931,6.689171
4.129088313116816,0.2786998930342735,-0.4247550428951608,0.0057466322419661,0.0046339584682933,0.0036503539617701,-9.155892025149456e-06,3.455109311077742e-06,-9.334456090225644e-06,11930,4.028985,-6.573418,6.73279
3.884348217389148,0.2452697051419672,-0.3977578815856532,0.0051272175453469,0.002712700696392,0.002853890396269,-9.76535017935126e-06,4.117648861985884e-06,-9.811357768001854e-06,11931,4.047423,-6.500907,6.832687
3.704410516282453,0.2158713521247381,-0.372802809110021,0.0045321405789587,0.0012788157030103,0.0027048333980526,-1.0659529448771851e-05,4.945772968610552e-06,-1.055870379135984e-05,11932,4.065428,-6.454289,6.97065
3.514045229372596,0.1772682096634135,-0.3590268119518779,0.0039001894365231,0.0002971580832165,0.0028101180473218,-1.158929466341255e-05,5.794067985877688e-06,-1.1341657348517192e-05,11933,4.064013,-6.381157,7.096298
3.333499879431907,0.1227466522002946,-0.341403441220126,0.0032261330099667,-0.0001579400082767,0.0030317066535533,-1.2462941990252649e-05,6.52962012611732e-06,-1.2107776942430914e-05,11934,4.055165,-6.28002,7.211004
3.175203545234616,0.0739937751709571,-0.3179756177356008,0.0025616330292217,5.856752817782291e-05,0.0035068188733383,-1.33634618018318e-05,7.2090049471213885e-06,-1.2934904951006766e-05,11935,4.043153,-6.142676,7.333602
2.990235240802444,0.0460591239929301,-0.287421702654409,0.0019454414174295,0.0010528664555171,0.0042169349921207,-1.427310912593526e-05,7.957036002792553e-06,-1.3750487517676414e-05,11936,3.990829,-5.935978,7.467473
2.818853180864167,0.0173735856347248,-0.2623307465312474,0.0014307800267684,0.0029332409569128,0.0051123901603099,-1.4968836698832902e-05,8.663123513684128e-06,-1.4330212794675472e-05,11937,3.875277,-5.631758,7.606023
2.6579202124758137,-0.0366191879532706,-0.2393562101536984,0.001044378230858,0.0057584848244913,0.0061854372487101,-1.5188992224095415e-05,9.046457035310752e-06,-1.4470325785521384e-05,11938,3.714635,-5.127352,7.772936
2.499583392892807,-0.1131746174561783,-0.1875154318916892,0.0007768067494063,0.0095177017448539,0.007426337519654,-1.4860196340990409e-05,9.04783128445864e-06,-1.4101953003576152e-05,11939,3.442518,-4.413083,8.005677
2.349387739557497,-0.1657428719791523,-0.1204253847516465,0.000619709003833,0.0141669281909551,0.0088740019043822,-1.4086339500229989e-05,8.838957143437136e-06,-1.3283954117753805e-05,11940,3.27885,-3.344555,8.28664
2.197734125180623,-0.1899050868136818,-0.0807418376390786,0.0005499448779798,0.0195976180311069,0.0106283159655989,-1.2917394928459176e-05,8.509567416391934e-06,-1.205534881767107e-05,11941,3.025813,-1.833225,8.482146
2.0427775504541543,-0.2942025728240077,-0.0732826587031874,0.0005333526046125,0.0255178537291259,0.012704522292992,-1.1077384911057543e-05,7.869595205733173e-06,-1.0174605341425648e-05,11942,2.639001,0.226745,8.550742
1.8795136887534387,-0.5322846213772061,-0.0749222908966082,0.0005235405309831,0.0314059654836875,0.0150360441084223,-7.843339410607156e-06,6.4751658125207215e-06,-6.950401435816504e-06,11943,2.096602,3.037111,8.627357
1.688745784744499,-0.8013543481759211,-0.0547274297765208,0.0004403365916876,0.0364783151579326,0.0175493606049211,-2.0852989858985616e-06,3.64870732431652e-06,-1.273781075427642e-06,11944,1.506471,6.928931,8.68899
1.461950244000673,-0.9299721985039548,-0.0348127053509498,0.0001623044245489,0.0395716340981033,0.0201224920352027,7.478819620694806e-06,-1.6370428240981456e-06,8.03508384410296e-06,11945,1.053977,12.567044,8.440084
1.28168496521249,-0.9135541681439164,-0.04389941376802,-0.0003658700047513,0.0400157329802062,0.0224863976514376,2.11676560533464e-05,-1.0107828174613904e-05,2.1129850375969823e-05,11946,0.679249,20.51411,7.993155
1.2067021815245125,-1.1294811610760591,0.0433487790656354,-0.0011309482604619,0.0376506829677849,0.024192642718098,3.704596215212234e-05,-2.094401883228387e-05,3.604081078196112e-05,11947,0.865098,30.778463,7.876298
1.1237149883640132,-1.8434462587620968,0.2923818154277521,-0.0021070379694712,0.0323033292154012,0.0245816803255389,5.153492070073078e-05,-3.189014771797422e-05,4.9341992456721935e-05,11948,2.303213,41.264526,8.237275
1.064632420668735,-2.580790425466037,0.4640916637831693,-0.0032207719228109,0.0240416103292948,0.0226893232340082,6.152303079006917e-05,-4.071260749203049e-05,5.812527758329544e-05,11949,7.166312,49.875835,11.150042
1.036756895309168,-2.7125994658149097,0.4126971045396054,-0.0044114017415277,0.0133688684806974,0.0182317288491212,6.5704388525842e-05,-4.621002224749317e-05,6.122727242572833e-05,11950,13.663831,52.979636,17.830945
0.4442526701399578,-2.447326963862668,0.3665432784184735,-0.0056289790866123,0.0013098090852501,0.0116760343983985,6.471746155833468e-05,-4.826493625111682e-05,5.93900703417897e-05,11951,18.302523,51.316923,24.052046
-1.0317892519998386,-2.304407939527445,0.4529395006824452,-0.0067676416764713,-0.0109213449036148,0.0037510117711114,6.073937546049199e-05,-4.760160359710357e-05,5.489879544340647e-05,11952,21.441952,48.84206,28.420315
-2.420741278681943,-2.003691556883537,0.4958314983092592,-0.0076685490193406,-0.0217586794483863,-0.004176438618071,5.62668599678564e-05,-4.54104524319622e-05,5.028299164904453e-05,11953,20.995968,45.637556,28.93895
-2.699218153613041,-1.112551346974766,0.4543392983893248,-0.0082532582267038,-0.0303216802680361,-0.0113667044398548,5.232378259120039e-05,-4.247455550560283e-05,4.648973094900106e-05,11954,17.277623,41.269401,25.979982
-2.388614258390882,-0.0974059140701362,0.4179552335649458,-0.0085218243100915,-0.0365470963034575,-0.0177505943599718,4.788961128195996e-05,-3.851061232845897e-05,4.243850090556001e-05,11955,12.312872,35.693303,21.510714
-2.6047964210668386,0.3110371308548775,0.3783162778606574,-0.0084905880772991,-0.0406325456971252,-0.022977668330138,4.124674305550922e-05,-3.26990806313642e-05,3.643518157448403e-05,11956,8.155891,29.224995,17.444711
-3.422085313609597,0.2334458008085776,0.366635684566475,-0.008233321000724,-0.0434583172621807,-0.0267303862864113,3.1458040509560085e-05,-2.460122350935932e-05,2.7583948663809045e-05,11957,5.175204,21.693684,15.261463
-4.3168360337648775,0.4154504908549202,0.3349026215367472,-0.0077855357636263,-0.0452595711468523,-0.0288504633798994,1.872991813698663e-05,-1.4509203123584052e-05,1.606780297178974e-05,11958,3.441081,14.390552,14.709651
-5.001825491547707,1.0632055253100816,0.2539168153665788,-0.0071427697998856,-0.0455891102872306,-0.0292786333966087,4.373832344869894e-06,-3.486157392986454e-06,3.0764306075329367e-06,11959,1.983671,7.324019,14.620199
-5.290186389010699,1.943981913905159,0.1863198617166948,-0.0063457355788767,-0.0443566641667145,-0.0282621846339417,-9.688756519824544e-06,7.116673725384173e-06,-9.6014024852315e-06,11960,0.264805,0.474048,14.15407
-5.143881723729068,2.9052928459790937,-0.1296331125176482,-0.0054630811246763,-0.0415178159291636,-0.0264367831060509,-2.215915404373309e-05,1.6580302056075404e-05,-2.0702528180980506e-05,11961,-1.584104,-5.860971,13.384706
-5.002118630556945,3.31458357862604,-0.5312729122575568,-0.0045290251763093,-0.0371347367313592,-0.0240492867335765,-3.260079354050309e-05,2.4684547247066547e-05,-2.9825195623323963e-05,11962,-3.165623,-11.669166,12.783199
-5.2347146135974825,2.743647479362222,-0.4693005111056301,-0.0035512866077512,-0.0315183687603454,-0.0209863377577149,-4.043704847430662e-05,3.0822316716814495e-05,-3.656620564929154e-05,11963,-2.44268,-16.306475,11.732488
-5.474856775741884,1.969099027780776,-0.5681466992311408,-0.0025309508056664,-0.0250255279993241,-0.0172427638198561,-4.484997038398149e-05,3.432720622381955e-05,-4.027475642977662e-05,11964,-4.595922,-20.665717,11.441783
-5.286438624510808,1.7275797057583953,-1.47511385053194,-0.0014466989248482,-0.0181524496614419,-0.0127392661761588,-4.557460339391523e-05,3.532421655122914e-05,-4.065625051373848e-05,11965,-5.823934,-23.545724,11.043727
-4.851514166174339,1.7510341825556206,-2.319823464749306,-0.0003159499207191,-0.0113598526765217,-0.0076379608008368,-4.293943752414029e-05,3.422489907090871e-05,-3.796899556486125e-05,11966,-4.952284,-22.802801,10.120641
-4.471023536049527,1.6439091792593303,-2.280573355434768,0.0008003733079683,-0.0050694637934247,-0.0024230607481591,-3.741423396681515e-05,3.097743491445654e-05,-3.275295313072348e-05,11967,-3.891945,-17.916926,10.199576
-3.54761678644919,1.3295995095891433,-1.5285034801068305,0.0018359073257647,0.0001303239378304,0.0023410780262037,-2.9996530725875576e-05,2.5860866179729955e-05,-2.602351746779104e-05,11968,-4.201034,-12.382807,10.288413
-1.1655113063174485,0.8133278864977893,-0.4609060675178207,0.0026979992181159,0.0034974227004546,0.0058641928459672,-2.2608502544421337e-05,2.023434158315345e-05,-1.949614420418004e-05,11969,-4.700478,-7.928476,10.779459
1.8680102875184963,0.3420659672830531,0.303194258808268,0.0033354319434506,0.0048174410049266,0.0078169929560615,-1.6982910429392582e-05,1.541089979256523e-05,-1.4692714829503244e-05,11970,-2.008064,-6.160601,9.652664
3.675291780241032,0.0430455130490891,0.3321473774663113,0.0037453784298219,0.0044573585906668,0.0084046723739798,-1.3621019049827847e-05,1.167895863948438e-05,-1.2087317357426193e-05,11971,0.297803,-5.153444,9.32968
3.9720231547935567,-0.2622667485597209,0.1720755874475656,0.0039265634526684,0.0031172349249391,0.0079563200086193,-1.228758003702773e-05,9.082890323084048e-06,-1.1418768521989496e-05,11972,1.724576,-5.612362,9.489315
3.899076938981584,-0.4601393853004575,0.2066594388794704,0.0039021915430636,0.0021291477494351,0.0071850687186225,-1.248011726317332e-05,7.87241236146483e-06,-1.2046698791163027e-05,11973,2.365572,-6.102811,9.608028
3.933275495485161,-0.4329475174445035,0.168017684498438,0.0036886543454395,0.0020057526766784,0.006416158947673,-1.334319208686151e-05,7.786098914221987e-06,-1.306956486075755e-05,11974,2.683337,-6.352095,9.686011
3.850296884505151,-0.3824654867011517,0.118431203331901,0.0032943449416212,0.0023824549784682,0.0055461370746846,-1.40669873839983e-05,8.0589387852353e-06,-1.380056857893864e-05,11975,2.881587,-6.457472,9.732919
3.694988014387018,-0.3741336510271389,0.1458630989914317,0.002758214349902,0.0029566544691794,0.0046450924358437,-1.4406545713036045e-05,8.244196153921601e-06,-1.4113105911458106e-05,11976,2.980376,-6.487136,9.78659
3.556439058410507,-0.3623500927212399,0.1438190019964698,0.0021475619786301,0.0030613604269632,0.0037586232190633,-1.4531078277989529e-05,8.370592279314629e-06,-1.420336180390138e-05,11977,3.086456,-6.528495,9.891221
3.402887143331891,-0.3663405764378591,0.1458000491312346,0.0014952200505232,0.0025064906379827,0.0029527930552839,-1.4643395009196896e-05,8.535055104862124e-06,-1.4267337075559794e-05,11978,3.230293,-6.593992,10.000931
3.246566965168065,-0.3671081834098215,0.1522242843923665,0.000802655328679,0.0016962980543819,0.0023765532713703,-1.4907210565493262e-05,8.746987174410681e-06,-1.4482647395283874e-05,11979,3.344933,-6.663192,10.095558
3.088307196454416,-0.3653493496199715,0.1513852213988633,7.04290584413016e-05,0.0009103650159407,0.0020962854448718,-1.5346435411878026e-05,8.961817642591506e-06,-1.4901868213326763e-05,11980,3.417134,-6.693825,10.179928
2.9325672468648305,-0.3775016880122096,0.1592197539082544,-0.0007185349375681,0.0005678908864655,0.0021176180515319,-1.5768758445951414e-05,9.116180788001352e-06,-1.533719335155795e-05,11981,3.452459,-6.660259,10.265138
2.7741814202275643,-0.3813543221556055,0.1643939069369218,-0.0015491559902064,0.0009132593180629,0.0024835720924921,-1.611597299405889e-05,9.272151168107051e-06,-1.5695902595062244e-05,11982,3.475833,-6.574634,10.364531
2.6196645960459977,-0.3803061032647959,0.1720751881077054,-0.0023684604588444,0.0019316599580668,0.0032495005039849,-1.6589302358723602e-05,9.616522913138136e-06,-1.613446716692029e-05,11983,3.484276,-6.427312,10.468236
2.4778071475333148,-0.3785274383765153,0.1765865338488815,-0.0031192749543174,0.0037024837881998,0.0044454265984785,-1.7226405694629428e-05,1.0134509334798687e-05,-1.6701033604216352e-05,11984,3.458726,-6.200562,10.581453
2.33114850918209,-0.3740939089946384,0.1863544449350847,-0.0037224248041647,0.0062925587975884,0.0060859467257812,-1.7756512476198834e-05,1.0535502009533186e-05,-1.7193431345778926e-05,11985,3.39679,-5.876161,10.737697
2.200299072235361,-0.3789291343379012,0.2459455509909384,-0.0041374557794388,0.0097205736525402,0.0081766865714333,-1.7897705950415748e-05,1.0651531442794213e-05,-1.7342634190768766e-05,11986,3.329027,-5.415516,10.965279
2.1012509901058136,-0.3733472624310963,0.3615837522778262,-0.0043695133392226,0.0139837984210289,0.0107058359508718,-1.748733194173269e-05,1.0540639586843894e-05,-1.6925929025261812e-05,11987,3.137525,-4.683571,11.240923
1.9968463533462872,-0.3737039243817441,0.4672978834904306,-0.0044286817749459,0.0189762776858675,0.0136369479779321,-1.6284322922113825e-05,1.0111718571488502e-05,-1.5700156761883533e-05,11988,2.984034,-3.446727,11.500476
1.853719792658434,-0.4608342073735977,0.4891244210069809,-0.0043516986725725,0.0244668764282712,0.0169012460668461,-1.368761789351681e-05,8.969323369599762e-06,-1.312641096239849e-05,11989,2.651767,-1.50978,11.629442
1.6758603645270247,-0.6712779028657356,0.4661739011112324,-0.0041747983032746,0.0300527856431431,0.0203534351422398,-8.500938353811535e-06,6.439275850794175e-06,-8.03650716502852e-06,11990,2.017433,1.455975,11.849415
1.5103536924104004,-0.9816405599094036,0.517211538562106,-0.003934914109656,0.0350886103741203,0.0237489175036926,8.079010238835963e-07,1.513776609319549e-06,1.0610979472782924e-06,11991,1.243581,5.968993,12.026465
1.4093332028456294,-1.3042534294989518,0.624323451050381,-0.0037076502169162,0.038613004442394,0.0267296245654078,1.4873877372359364e-05,-6.697894731712767e-06,1.4649583515827394e-05,11992,0.597169,12.427757,11.903992
1.3621673648741546,-1.524874342162125,0.6738575450126046,-0.003609286708191,0.0392270711345001,0.0287739006519599,3.2251155035935174e-05,-1.7981146871191034e-05,3.112233910676613e-05,11993,0.013918,21.499523,11.274783
1.3214089903390194,-1.7465772865697669,0.640262474386502,-0.0036933275089796,0.0363550817923893,0.0294811695585424,4.964833508186186e-05,-3.054895790451741e-05,4.723252321955359e-05,11994,0.576696,32.285716,10.821635
1.2607360940983925,-2.1620289402308157,0.5238823188869444,-0.0039503488664205,0.0303126595422069,0.0285608959480054,6.327121021107279e-05,-4.178491812890333e-05,5.942239808621176e-05,11995,3.971095,41.539133,12.022953
1.188807266964076,-2.5321864573455715,0.3389520304200552,-0.0043588723274961,0.0216476990356031,0.0256296838337455,7.040453942383733e-05,-4.958273335410727e-05,6.51966852550603e-05,11996,10.374175,46.46924,16.91575
1.0228346142760514,-2.5445756800727404,0.1941691392290528,-0.0048528497963014,0.0115878191812634,0.0202654955370848,7.057415549285254e-05,-5.3034400113541685e-05,6.42586677454323e-05,11997,15.687368,46.495943,22.637152
0.4328567289179761,-2.352309062417712,0.1500772262319646,-0.0053916339073549,0.0008991853867466,0.0125792767417594,6.557947283082353e-05,-5.233838589161105e-05,5.8630721536201866e-05,11998,20.40882,45.21025,28.454599
-0.5456415527099205,-2.013467205912216,0.1369683225657787,-0.0059607692469232,-0.0101311273088336,0.0032945521590807,5.829938597242963e-05,-4.853847179763266e-05,5.135745375497899e-05,11999,22.542871,42.671856,31.023654
-1.03989663140203,-1.4272123041642923,0.1287657664578473,-0.0065063796830363,-0.0207014380019734,-0.0063805831278649,5.0884565312905736e-05,-4.288227074286121e-05,4.45687103785483e-05,12000,21.037178,39.48265,29.838364
-0.9161435297293812,-0.7686936122302881,0.1251309580338222,-0.0069460459256186,-0.029706490043894,-0.0144376279822877,4.364735170985491e-05,-3.601912854432114e-05,3.8426634489013495e-05,12001,16.865451,35.459342,26.049742
-1.4606498494357265,-0.0933545276669685,0.0918998480610344,-0.0072382470029972,-0.0365341485929053,-0.0199837521083107,3.569846041698314e-05,-2.8042374790430147e-05,3.186552457912603e-05,12002,12.090767,30.449703,21.505443
-3.051418957891366,0.6330300131154973,0.1547779846771469,-0.0073776901851828,-0.0409970780349105,-0.0233122790179652,2.637616888733489e-05,-1.9160568192142963e-05,2.4044695635074e-05,12003,8.145177,24.27888,17.698515
-4.5816840458725885,1.121625175173278,0.3744541610051776,-0.0073689150870663,-0.0431041026812411,-0.0247355377941223,1.5871472956548506e-05,-9.9644909107417e-06,1.4982648322293906e-05,12004,5.587534,17.530842,15.583102
-5.426700097507214,1.2947957992614718,0.4791347453796529,-0.0072463464037284,-0.0433035135944323,-0.0251693855047301,4.941547745520707e-06,-1.1261190494759843e-06,5.328965462583738e-06,12005,3.85373,11.02161,14.788707
-5.697687173146021,1.5167841829554076,0.4330413119935231,-0.0070162771948889,-0.0417896888528207,-0.0249719144116534,-5.590702261163254e-06,6.930150916407897e-06,-4.096832673493507e-06,12006,2.122755,4.546433,14.386104
-5.504129600029108,1.9054876543774717,0.3989058701477283,-0.0066550644274906,-0.0385255540521317,-0.0238373145477645,-1.5185937476477293e-05,1.4091113608703645e-05,-1.270317058027898e-05,12007,0.312907,-1.497123,13.724403
-5.128864914493787,2.352194818197037,0.2001016841079974,-0.0061541075649169,-0.0338295123173446,-0.0218435817056992,-2.3737602121345493e-05,2.0483873835865938e-05,-2.0339643598113053e-05,12008,-1.510584,-7.018278,13.085201
-4.772271186993141,2.612115585863774,0.052479044326016,-0.0055061213061614,-0.0282737139086305,-0.0191640740230625,-3.135711665270663e-05,2.6225676167364023e-05,-2.7114526327518517e-05,12009,-3.198652,-12.15362,12.925111
-4.541790949033484,2.1189063429557717,0.2238675920297332,-0.0047107940939245,-0.0222430290160312,-0.0159059542748317,-3.774901297098553e-05,3.094826702208992e-05,-3.281984975883217e-05,12010,-3.830137,-16.381156,12.677979
-4.707127081753261,1.183810045590211,-0.1089860282154482,-0.0037812546681183,-0.0160120220965674,-0.0122297196007131,-4.193689965161834e-05,3.38332273886346e-05,-3.662700716041232e-05,12011,-5.856961,-20.356905,12.373532
-4.897839468024358,1.1650929352447024,-1.2323096522992438,-0.0027339215153919,-0.0099364901681971,-0.0082359784184573,-4.288785749583246e-05,3.436089096169217e-05,-3.755163600021011e-05,12012,-6.735756,-23.740091,11.416053
-4.844248652863915,2.263343169289139,-2.0305224305491265,-0.0015938718035349,-0.0043818637686971,-0.0039604159647639,-4.019785085459504e-05,3.2530120233539706e-05,-3.513017065854006e-05,12013,-6.430009,-23.988284,10.129601
-4.680319353928052,3.003683625496639,-1.954460569872975,-0.0004065647265733,0.0003520256157744,0.000421981592301,-3.427005974763495e-05,2.849135385175024e-05,-2.974880698709097e-05,12014,-4.367558,-20.377798,9.253143
-3.3094645932938502,2.360097016876664,-1.3225843541160198,0.0007574576118788,0.0040257611942542,0.0045986701339229,-2.6406991786041285e-05,2.275948810339901e-05,-2.271195459461266e-05,12015,-4.313902,-14.259062,9.484872
-0.4361400727251241,1.0283307470243703,-0.4062405988981643,0.0017959693158118,0.0064761243643516,0.0081971077902368,-1.8551341233588863e-05,1.6513780987293993e-05,-1.5848317133981688e-05,12016,-4.60116,-9.065596,9.911018
1.8350563661731716,0.1871302844389967,0.232909429748009,0.0025620377880608,0.0076543150040142,0.0107140385706183,-1.239139227601912e-05,1.106153898388513e-05,-1.064543165656214e-05,12017,-1.533618,-6.669647,9.084989
2.618583208388154,0.0191923063921939,0.2154357102436767,0.0029871454479132,0.0076597425259061,0.0119765070862559,-8.647198455336949e-06,7.091307368816721e-06,-7.690423701573663e-06,12018,1.352935,-5.9073,8.788955
3.1441760378593475,-0.00499211120631,0.0707137699981214,0.0030870464958183,0.0067973474875523,0.0121895446774059,-7.110421098122063e-06,4.654610046624998e-06,-6.741580531321844e-06,12019,2.511754,-6.57135,9.018728
3.58471159553224,-0.1229909060721597,0.0846250005479154,0.0028957693494829,0.0055732270213712,0.0116983931566401,-7.107705799918649e-06,3.6219911265802095e-06,-7.088453944114071e-06,12020,3.147107,-7.023618,9.159539
3.40631370406378,-0.1664638207270586,0.0119732207407914,0.0025078729211071,0.0047820435095709,0.0111755171827399,-7.84012950439226e-06,3.67503974925452e-06,-7.92019767239904e-06,12021,3.48472,-7.226693,9.176765
3.1572876658059714,-0.1280242391570942,-0.0545405796182449,0.0019771690222441,0.004723705098522,0.0108929966210126,-8.604332076364488e-06,4.161491677113602e-06,-8.63876071337581e-06,12022,3.640506,-7.277572,9.208933
3.123478969172328,-0.120631620584114,-0.0519538678364061,0.0013144794399824,0.0051579270145519,0.0106853690447085,-9.091892014046254e-06,4.550456425553645e-06,-9.06726972377433e-06,12023,3.681213,-7.283442,9.218214
2.998871789043756,-0.1282600454731982,-0.0856250179624152,0.0005776607099625,0.0057293842877828,0.0104543365725666,-9.364705726258426e-06,4.77232322306953e-06,-9.305050696558354e-06,12024,3.678269,-7.267017,9.238902
2.865817211266247,-0.1328360529998397,-0.1031860861062431,-0.0001471030674782,0.0056948724381497,0.0099597504298436,-9.546596024943513e-06,4.977963742987239e-06,-9.444188590900396e-06,12025,3.723906,-7.287726,9.311663
2.7699181730614844,-0.1287495996459434,-0.0920768327277607,-0.0008143039758863,0.0048300108120158,0.0091492519217854,-9.744307943200596e-06,5.277318186649794e-06,-9.568989182592417e-06,12026,3.785358,-7.347221,9.394602
2.645798092768036,-0.1287208921089477,-0.0849954712297856,-0.0014118996991528,0.0034950701677757,0.0082192101361299,-1.0010058009937764e-05,5.63883126191487e-06,-9.750600210511133e-06,12027,3.881816,-7.412399,9.481908
2.5217831890984765,-0.1461621445042297,-0.0784583216902683,-0.0019406906905146,0.0019908765296237,0.0073031182144486,-1.0242225932433128e-05,5.885732879282666e-06,-9.933010082404112e-06,12028,3.985737,-7.485627,9.577217
2.38796651644836,-0.1603322947213886,-0.0645038948989273,-0.002433802429396,0.0008337205157808,0.0065787097175715,-1.0323046066759691e-05,5.882616662003738e-06,-1.002960761595518e-05,12029,4.103612,-7.536264,9.682298
2.256704584530694,-0.1697572430382806,-0.0380405083880026,-0.0028935333543316,0.0003191024327411,0.0061727234669954,-1.0314109853546622e-05,5.719347257326974e-06,-1.0079020907613714e-05,12030,4.217272,-7.552738,9.785585
2.1292005492498047,-0.1782490259093753,-0.0205037103489331,-0.0032902352865277,0.0004538219751825,0.0061254767384112,-1.0343088745940712e-05,5.59651081421252e-06,-1.0151628184106114e-05,12031,4.34166,-7.5144,9.902866
1.9988495557403407,-0.1869790000025885,-0.0053717515634102,-0.0036093120373697,0.0013848346497122,0.0065204830259151,-1.0406843806250948e-05,5.626613688583903e-06,-1.0200862477062553e-05,12032,4.47834,-7.414715,10.045362
1.8741953380315144,-0.1966341337469615,0.0295831167752491,-0.0038363665108852,0.003276731056045,0.0074508845381353,-1.0465129027141536e-05,5.819489578338538e-06,-1.0181151976433482e-05,12033,4.607434,-7.240799,10.230955
1.758585630980071,-0.2097786830458983,0.0555013481734716,-0.0039632277398737,0.0061876311822005,0.0089591679811111,-1.0501439060816883e-05,6.079982976547353e-06,-1.0117122285117198e-05,12034,4.690839,-6.924403,10.463681
1.6817657183534924,-0.2308815045115501,0.1096032667870739,-0.0039942281547294,0.0100979900209289,0.0110433854689543,-1.035309934467194e-05,6.222124189210228e-06,-9.893298408307154e-06,12035,4.697381,-6.394891,10.754104
1.6460520597176478,-0.2325306074289004,0.300635921453961,-0.0039346395018812,0.0148598031924902,0.0136503412901039,-9.70515247095342e-06,6.109118704216722e-06,-9.195345357711271e-06,12036,4.6485,-5.509794,11.094183
1.5674237242180935,-0.250232037733811,0.5719234974448819,-0.0037954913546367,0.0201441198910404,0.0166492489038133,-7.99477622913222e-06,5.543485846154623e-06,-7.439903105236622e-06,12037,4.535736,-3.985929,11.358701
1.413130771050419,-0.4423072412880332,0.7633703338374207,-0.0036105689611845,0.0255294262027461,0.0198619767851253,-4.018681406584452e-06,3.823792716260136e-06,-3.457235612174428e-06,12038,4.02625,-1.353904,11.492641
1.2841075407373213,-0.7892993582547712,0.8423478793137651,-0.0034408336119652,0.0304378297849006,0.0230359370618088,3.724359623848728e-06,-2.1101732246402441e-07,4.134461539103028e-06,12039,3.208685,2.891807,11.640905
1.1992108060977946,-1.0046828037971065,0.837804637039253,-0.003377623398463,0.0339750563810439,0.0257740464729318,1.5654034116537726e-05,-7.278034423297548e-06,1.5609725016228246e-05,12040,2.567511,9.101145,11.561303
1.1603992426845395,-1.0918873508313018,0.778309998067231,-0.0035567428557803,0.0348504592340106,0.027496301310981,3.0174600713290803e-05,-1.6815409844418024e-05,2.9307614195001437e-05,12041,2.414929,17.745841,11.26845
1.2305697460308624,-1.4456796719749718,0.7120551696683013,-0.0040392270435375,0.0325348864572697,0.0278029177184098,4.422537757923714e-05,-2.7110281452126548e-05,4.223415952242653e-05,12042,3.886341,27.914402,11.287454
1.304455779803468,-2.011789430055168,0.6197026287344168,-0.0048058356322999,0.0273159221087495,0.0264654347036887,5.470247386782706e-05,-3.612311293463885e-05,5.14510653660451e-05,12043,7.865133,36.099842,13.590881
1.3682956786163816,-2.2661444652079368,0.4955290714785575,-0.0058226459374333,0.0197174906660014,0.0232004646409417,5.972820788433027e-05,-4.223552546125173e-05,5.529348922212878e-05,12044,12.873087,38.997443,18.249974
1.1869854989432391,-2.178059314707741,0.3943724392569986,-0.0070009307537301,0.0109129549691297,0.0177564327828702,5.935230468380036e-05,-4.471593056454871e-05,5.403341357341719e-05,12045,17.369163,39.330987,23.68079
-0.0338050694982459,-2.009743103935464,0.2392050661391345,-0.0082661016390768,0.0016094401224718,0.0102925028412483,5.538474950913469e-05,-4.39346384200649e-05,4.9639301787481314e-05,12046,20.80537,37.991213,27.534532
-2.008610859238098,-1.657614204530342,-0.014502699479099,-0.0095557319148606,-0.0079686834517863,0.0014460463666783,5.00798587057968e-05,-4.0957894017991576e-05,4.438691929030346e-05,12047,21.261807,35.91132,28.328986
-3.0878128011914505,-1.0358002342510173,-0.1688688637888347,-0.0107423757396026,-0.0171351135833301,-0.0076840344257042,4.4522525547728496e-05,-3.65894390141153e-05,3.928755525322032e-05,12048,18.693775,32.921752,26.12813
-2.8342520228092214,-0.306750604901232,-0.1539160333896777,-0.0116368043526451,-0.0249573652597075,-0.0152875571737439,3.824922403157165e-05,-3.0844040386724325e-05,3.382110130071685e-05,12049,14.772616,29.029616,22.576173
-2.6087628371605374,0.3731955559112334,-0.166151199823098,-0.0121452350403074,-0.0309102797543727,-0.0205531303838829,3.030864532120594e-05,-2.343941554926183e-05,2.700718390329531e-05,12050,10.698704,23.834252,19.463944
-3.2745840118393112,0.8570584693672654,-0.2601688302377152,-0.012267536110566,-0.0348076688927147,-0.0237221042686133,2.04761730703748e-05,-1.4598497225938982e-05,1.853354424680605e-05,12051,7.43879,17.81007,17.494613
-4.325536837118902,1.0862522798607084,-0.3134233795183046,-0.012024164884675,-0.0366457058480793,-0.02507100609873,9.559250145794584e-06,-5.235599626006666e-06,9.03661890267496e-06,12052,4.838854,11.65772,16.403916
-5.0155205663317926,1.1815027555718394,-0.3014841394007298,-0.0115052065637699,-0.0368020277080191,-0.0254334777454469,-1.1040367664335175e-06,3.463915091012768e-06,-3.3291325430194737e-07,12053,2.80447,5.924383,15.443526
-5.156956282162137,1.14676086381655,-0.2824987580887652,-0.0107588861869124,-0.0354377366932719,-0.0251352339391551,-1.033330237732179e-05,1.060072957430053e-05,-8.52065458669985e-06,12054,0.627279,0.117814,14.429414
-5.111239421631222,1.1539127946710468,-0.3026307551135978,-0.0097906314110375,-0.0325223759906391,-0.0239041056800033,-1.77034971753406e-05,1.603104929644413e-05,-1.5107470583796014e-05,12055,-1.085389,-5.558161,13.218499
-5.023549236830051,1.7404847533560177,-0.3553108491688204,-0.0086646749861896,-0.0283331470441467,-0.0218221288186666,-2.3602883498664275e-05,2.0294941003160056e-05,-2.038530604834666e-05,12056,-1.715069,-10.529556,12.066608
-4.805990629406795,2.651273396724913,-0.3617283962225414,-0.0074859293293365,-0.0233700800015442,-0.0190650061198376,-2.8358852718526637e-05,2.373083346909828e-05,-2.4633118116843407e-05,12057,-1.314169,-14.061522,10.876085
-5.033369901563321,2.9982855851335755,-0.2942348736560143,-0.0063066703677041,-0.0180158705682601,-0.0157726583857885,-3.15772453374427e-05,2.6020533007521903e-05,-2.7519531467185807e-05,12058,-3.02781,-17.252824,9.994731
-5.751193578934509,2.755511844653217,-0.2473573903670268,-0.0051351852422042,-0.0126112092271827,-0.0121641009382282,-3.262835951190879e-05,2.686488075671668e-05,-2.843420895632888e-05,12059,-4.669532,-20.420193,8.726156
-5.811066613345343,2.460199648527681,-0.2568022646604549,-0.0039702446005503,-0.0076150678982384,-0.0084362607604191,-3.122632248973378e-05,2.629302185228997e-05,-2.703310269309217e-05,12060,-4.740651,-21.896652,6.763636
-5.386036781050887,2.346177725468962,-0.2174430502478643,-0.0027761215891237,-0.0035700144704276,-0.0047749020145474,-2.743980630653853e-05,2.4205945618537476e-05,-2.3412430119444475e-05,12061,-3.048224,-19.946602,5.071441
-5.158973265599993,2.230546234399671,-0.1089182288098958,-0.0015669465717634,-0.0007602272158195,-0.0013603323531847,-2.1772601364732423e-05,2.0544066999411097e-05,-1.8163136470820337e-05,12062,-3.635732,-14.560401,5.943214
-3.512253659031288,1.5687329467996856,-0.043136062015133,-0.0004125955562262,0.0008096936436734,0.0016508047251197,-1.540334545486127e-05,1.59680994967221e-05,-1.2408662391764473e-05,12063,-4.465982,-9.792533,6.482702
0.1055563330945164,0.3180053998131735,-0.0547827879759556,0.0006183985092763,0.0012962907081534,0.0041122757475444,-9.86757089692222e-06,1.1623421875989214e-05,-7.513336101575459e-06,12064,-3.32058,-6.912239,6.374207
2.968454934594864,-0.5976789308089183,-0.0741651618802453,0.0014324945831023,0.0011639984707059,0.005898566353141,-6.173362173266937e-06,8.161669569584682e-06,-4.417856120170828e-06,12065,-0.892406,-5.419878,5.61609
3.803179374255057,-0.7217010674322796,-0.0655089979905489,0.0019779592787788,0.0006637379380766,0.0069852449648087,-4.397524860604696e-06,5.608223675086141e-06,-3.223399338905365e-06,12066,1.16969,-4.930011,5.388918
4.076698197645357,-0.673839751499562,-0.089722563320049,0.0022541961521592,-0.0001565110273113,0.0074726469156466,-4.072418793912269e-06,4.012360191231182e-06,-3.386046986047164e-06,12067,2.082278,-5.373996,5.548453
4.285937237346918,-0.7711526560196497,-0.2329593159909421,0.0022620140940342,-0.0010393266846496,0.0075880156919741,-4.618432792026828e-06,3.4790958850723884e-06,-4.194126172629985e-06,12068,2.553831,-5.719931,5.647793
4.037008533351496,-0.7768837841058052,-0.4659561899288536,0.0020273534098326,-0.0016118159217321,0.0077495476266726,-5.554753601472546e-06,3.798370273998833e-06,-5.1581465054814224e-06,12069,2.717644,-5.898721,5.702847
3.7862513464922394,-0.7117950907091618,-0.6287270308690416,0.0015759397063308,-0.0017433007170854,0.0081181882032576,-6.597674095355691e-06,4.583683012406265e-06,-6.083629772339517e-06,12070,2.823176,-5.968075,5.734455
3.694500309227405,-0.67774019573931,-0.6373849427712291,0.0009331886055099,-0.0015274262160419,0.0085858403420405,-7.6536069394297e-06,5.587298653743054e-06,-6.946755916411837e-06,12071,2.868224,-5.9822,5.757388
3.5198874052261067,-0.6492678646227048,-0.5793036378891935,0.0001625012685483,-0.0011888892264426,0.0090444772970902,-8.812339207004034e-06,6.714351523616065e-06,-7.884811443770525e-06,12072,2.908222,-5.997276,5.805061
3.387533247002732,-0.6419322047079488,-0.5348290511584856,-0.0006329929482023,-0.0012089825586541,0.0092525822008071,-1.0282552126671367e-05,7.921261267148254e-06,-9.164110470469148e-06,12073,3.024465,-6.084013,5.895751
3.2802156762305787,-0.6416304992367632,-0.4984129564620522,-0.0014010511521351,-0.0017189463558951,0.0091447070568338,-1.211482516723776e-05,9.131539882737264e-06,-1.0878300542877093e-05,12074,3.155978,-6.198514,6.027081
3.14181972504423,-0.6287494244960811,-0.4606487983116632,-0.0021381886525007,-0.0024754462402742,0.0088665658912221,-1.40204491887094e-05,1.0176906618761057e-05,-1.2743848123891995e-05,12075,3.245838,-6.271084,6.158055
3.017413189243095,-0.612673541141123,-0.4245094381804809,-0.0028428770995395,-0.0032444915994552,0.0085277594212776,-1.568876529889241e-05,1.0928680869020572e-05,-1.4431097567597335e-05,12076,3.300184,-6.292445,6.27954
2.875572946366179,-0.594018448828336,-0.3899618361122483,-0.0035409213357543,-0.0036195098694881,0.0082975678953142,-1.714105573434581e-05,1.14966266378109e-05,-1.5923295416436156e-05,12077,3.361925,-6.277765,6.421545
2.731744807196839,-0.578252811221359,-0.3522254297874091,-0.0042186045761092,-0.0033577275494055,0.0082754905436125,-1.8594892047508552e-05,1.2142573365933818e-05,-1.7389851463119255e-05,12078,3.427012,-6.23598,6.584598
2.5892130491677,-0.5586645700821212,-0.3103137351420477,-0.0048158313765746,-0.0024171679954319,0.0084629161245796,-2.0198430754314087e-05,1.300618121277752e-05,-1.8960868938701444e-05,12079,3.501224,-6.159008,6.763776
2.4342361838305244,-0.5361333246516108,-0.2763764608409989,-0.0052757359777906,-0.0006457682092731,0.0088994217175262,-2.1948921943215504e-05,1.4018200417146282e-05,-2.0653945410427533e-05,12080,3.588431,-6.012702,6.98416
2.289649031116599,-0.523217411181555,-0.2252205634205071,-0.0055232735006568,0.0021318920616513,0.0096217194369492,-2.376350770311876e-05,1.503136461083212e-05,-2.2422110379919773e-05,12081,3.693513,-5.757109,7.233525
2.1869373145641195,-0.5105810477355577,-0.1195540149192793,-0.0055112459381433,0.0059648981413198,0.0106404738273745,-2.557748124906666e-05,1.595765901312105e-05,-2.422792148841139e-05,12082,3.755518,-5.354221,7.508739
2.102563878798403,-0.4871798151637352,-0.0038690288956071,-0.0052274870066137,0.0107888370116979,0.0119493970198828,-2.725437863708238e-05,1.6806054475488337e-05,-2.5912309462399965e-05,12083,3.647989,-4.669772,7.906839
1.974252952229849,-0.5023846766205294,0.0557560162956494,-0.0046574836648397,0.0164129105329885,0.0134978169557153,-2.8347448369349927e-05,1.7502651859827228e-05,-2.698195128234012e-05,12084,3.403695,-3.511882,8.303328
1.816739798744964,-0.580613899597096,0.0433448407120974,-0.0038002969110714,0.0224530762102901,0.0151778210142836,-2.7941161744179108e-05,1.7610537551967697e-05,-2.653037417863353e-05,12085,3.079205,-1.503082,8.36355
1.6458644993322822,-0.6424285685990295,0.0380611361523216,-0.0026509738133428,0.0284342766714489,0.0168417766769766,-2.480403640518932e-05,1.633811646549291e-05,-2.338992267649751e-05,12086,2.1578,1.821775,8.342911
1.4792838461402429,-0.7124743241884572,0.239170363909999,-0.0011985551093849,0.0337287146070875,0.0182788848176009,-1.7891400111571064e-05,1.2867928182427936e-05,-1.6584902972696228e-05,12087,0.888065,6.791729,8.207431
1.3953563544973844,-0.8424583442248513,0.6361072315023777,0.0005498900648539,0.0373734419925893,0.0191697230835092,-7.143147182317813e-06,6.89571174282882e-06,-6.10290723667025e-06,12088,-0.550041,13.666924,7.573566
1.3751722012943777,-0.9710728750195406,0.8791905040859571,0.0025709364623885,0.0379909247490828,0.019054431926066,5.860996940590581e-06,-9.415827805618876e-07,6.44446475226906e-06,12089,-2.057186,22.555554,6.588331
1.3574571755435896,-1.2298597785302048,0.8510936912754252,0.0048292941474097,0.0350590348826391,0.0177081301099191,1.8361967609669712e-05,-9.274041994311108e-06,1.828072693521757e-05,12090,-2.676237,31.880769,4.968623
1.246562024907097,-1.67562814731748,0.7233408017374816,0.0072693536682909,0.0289791157686834,0.0151546323771966,2.775807327529841e-05,-1.6578046722201475e-05,2.685538854132824e-05,12091,-2.473238,38.969874,3.696064
0.8321558146411538,-2.024864843225284,0.4016862602257843,0.0098058948813421,0.020457902714767,0.011466968340807,3.2602738897865606e-05,-2.169892070174344e-05,3.084921371677593e-05,12092,-0.490257,40.823984,4.319536
0.1067414243510927,-2.291162074662392,-0.1962364986086873,0.0123143995875502,0.0109750237309483,0.00689286501113,3.2938460199475047e-05,-2.430281071304152e-05,3.040269618651503e-05,12093,2.155017,40.641182,5.026087
-0.723607687094852,-2.678693037720256,-0.6803984495563211,0.0146998178328331,0.0014147572622916,0.0016222238794736,3.0014818208800173e-05,-2.490137424043753e-05,2.677732528938796e-05,12094,4.382627,39.045145,4.923564
-1.4699080976443477,-2.9455927205683694,-0.7615074773020125,0.0168934843806315,-0.00795453267742,-0.0042079755606975,2.5467329574946312e-05,-2.4320910335031265e-05,2.159852830586673e-05,12095,5.743133,35.852243,3.272025
-1.814304139138486,-2.891734956620275,-0.7737774344876083,0.0188055178783451,-0.016362385283091,-0.0102665530341084,2.0476493947655685e-05,-2.3153951563989605e-05,1.6066195732873528e-05,12096,6.496088,31.441567,0.478225
-1.711794962590414,-2.7398033016255634,-1.1171350883314983,0.0203380494526035,-0.0228164411763013,-0.0160458124871371,1.5534911102947594e-05,-2.1656556636124984e-05,1.0690560274157815e-05,12097,6.994533,26.268874,-2.73793
-1.865823305525265,-2.589857220393338,-1.639536084011417,0.0214250711388943,-0.0268189010050964,-0.0212762352497551,1.0884039327768624e-05,-1.998726352890681e-05,5.702855472776465e-06,12098,7.458158,20.694242,-6.137703
-2.615734416794714,-2.427638501129888,-1.9449371828563813,0.0220324748797727,-0.028303136594076,-0.0259115309501861,6.822263756282536e-06,-1.8247447804566943e-05,1.4213727114543862e-06,12099,7.967797,15.427653,-9.788499
-3.323827893007426,-2.3433141731117533,-2.0145577984455185,0.0221522529644063,-0.0275202420543831,-0.0299342318000223,3.5671849176917724e-06,-1.641776778236318e-05,-1.871614564019232e-06,12100,8.22804,10.575918,-14.083164
-3.6141210642851136,-2.2201226682153186,-2.0524135766798697,0.0218201946376303,-0.0252908175710728,-0.0334742662417769,1.2206440064236507e-06,-1.4599492670835464e-05,-4.081245316050092e-06,12101,8.100296,6.290698,-19.080656
-3.6202768098066858,-1.966431948169426,-2.0074419924386087,0.0210499753539805,-0.0220500202661885,-0.0364873535933834,-1.990285987038807e-07,-1.2988714154491052e-05,-5.270803340902091e-06,12102,7.968498,2.448201,-24.404103
-3.5121892034719977,-1.7375305453794332,-2.007558413660882,0.0198375561370723,-0.017883014242828,-0.0387320330868043,-8.973448468069788e-07,-1.1454054169216834e-05,-5.644167985176149e-06,12103,8.144839,-0.947271,-29.661082
-3.6440889296819368,-1.469606761194309,-2.427021948373679,0.018215254153823,-0.0132590906443113,-0.0400146891213827,-1.2949911865680325e-06,-9.558197511533196e-06,-5.520911747441069e-06,12104,8.543873,-3.744399,-34.96118
-4.026659095657944,-1.081489396979989,-3.064529465781221,0.0162436533809334,-0.008867985934423,-0.040098921463403,-1.7562502461689303e-06,-6.927809451328191e-06,-5.172349076070177e-06,12105,8.865901,-6.041819,-40.816468
-4.1443853773336405,-0.8287559763398549,-3.270931604810458,0.013964789816965,-0.0050664307198341,-0.0388609679730464,-2.313806352457057e-06,-3.453144729084489e-06,-4.588326301243974e-06,12106,9.034091,-7.698369,-47.548363
-3.8331935290907175,-0.4970529574265778,-2.877963897506325,0.0114098883770026,-0.0019329690338866,-0.0363298259149243,-2.656801888914091e-06,5.774621016285146e-07,-3.5054500318215257e-06,12107,8.687374,-8.680583,-54.665779
-3.4961570746675914,0.535419191564725,-2.595541241483513,0.0086225057042734,0.0005730210615959,-0.0325595292042628,-2.422245094576769e-06,4.408994822864255e-06,-1.7718175870603175e-06,12108,8.048339,-9.172752,-61.130247
-3.4032510535435136,1.8424850425173704,-2.5645885377963,0.0056515975638231,0.0027733350125809,-0.027698038616045,-1.4058709712518218e-06,7.013168616858913e-06,4.642116897172365e-07,12109,6.433297,-9.11421,-65.222993
-2.8859373764477527,2.440877323621743,-1.4711016291765482,0.0026069349905062,0.0047375201862468,-0.0219706619970527,4.5149858018716725e-07,7.655413093102192e-06,2.977289075563197e-06,12110,5.08735,-7.110796,-67.647483
-1.033467820612478,2.4641143934137717,0.8160123243367189,-0.0003253735777331,0.0062783754425735,-0.0157013086433432,2.9478946325542587e-06,6.430271224818962e-06,5.5433696410863385e-06,12111,5.245469,-5.124438,-69.470759
1.3159251553762474,2.5961677781271177,2.365627844774889,-0.0028972838943408,0.0073528715070069,-0.0094233991361811,5.500480162450226e-06,4.073962600705974e-06,7.73648086642458e-06,12112,4.117301,-3.20116,-68.486326
2.3928364223853418,2.878686189043625,2.4233194149778603,-0.0047611536650797,0.0079429902214785,-0.0039346735730899,7.467219776050971e-06,1.396131839397416e-06,9.093731687869845e-06,12113,3.087578,-2.17128,-68.01552
2.3141643272735264,3.0757139077461844,2.216236533829058,-0.0057826149446971,0.0080330874984611,0.0003593854526484,8.648633475499303e-06,-1.05767468892828e-06,9.58474379624523e-06,12114,2.294512,-1.092983,-67.849057
2.3254717016067814,3.0974304209274224,2.313949060961558,-0.0060646455508966,0.0076579581262387,0.0034579777665932,9.340424064512637e-06,-3.169557519794501e-06,9.611022336034504e-06,12115,2.132813,-0.362132,-67.915826
2.4681341260711136,2.916928208706552,2.293208874724872,-0.0057845070215222,0.0068418778952813,0.0054082766622367,9.880641690859962e-06,-5.152059711671726e-06,9.49814391384952e-06,12116,2.409842,0.179383,-68.171653
2.350052704941373,2.690291488777728,2.189016835780251,-0.0053120212130227,0.0056115710637257,0.0065103026194093,1.033892020881463e-05,-7.232366414819758e-06,9.240437180507436e-06,12117,2.752928,0.692921,-68.49461
2.1930901214183747,2.5566946417383942,2.1148095162138274,-0.0048001382056124,0.0040902337216587,0.0068913561121335,1.0677478492276476e-05,-9.421148336918744e-06,8.782857755663255e-06,12118,3.041673,1.080835,-68.842487
2.1046212234388566,2.440360931762166,2.0075934413737597,-0.0041646855948837,0.0025094606328565,0.0064883294165086,1.0889232133010044e-05,-1.1534741545907251e-05,8.188002084654095e-06,12119,3.115802,1.334755,-69.128587
1.9914355871306528,2.3185530312751257,1.9468315751949063,-0.0033819160254996,0.0012019506995354,0.0054423625501755,1.093227717251782e-05,-1.3439046965022474e-05,7.465329635143521e-06,12120,3.060465,1.478702,-69.318414
1.8896613625219687,2.212997864264485,1.88673042728978,-0.0023766539905562,0.0006575484495804,0.0040181936302188,1.0767278037630797e-05,-1.5129577227159846e-05,6.575227146606258e-06,12121,2.966418,1.565123,-69.414171
1.7969390685854585,2.105563625225339,1.8014607650300087,-0.0010592410679115,0.0011057262479873,0.0022829717352145,1.0463201328624698e-05,-1.6679247433495463e-05,5.571946669391608e-06,12122,2.853603,1.614174,-69.474213
1.6950451563215423,2.0095914940480504,1.7341865012226751,0.0006570324307122,0.0024949335694897,0.0001343060486681,1.024967785174592e-05,-1.835012357914625e-05,4.62497675882319e-06,12123,2.7236,1.660374,-69.56457
1.6043341045501531,1.912978285553997,1.6592001979623774,0.0029738848921747,0.0047270993396518,-0.0026049069238211,1.0483031355522456e-05,-2.0521515297870047e-05,4.012809447237243e-06,12124,2.593611,1.756175,-69.742057
1.5196053855334664,1.789490422647874,1.5814629623563767,0.0062169626388058,0.0075177115457651,-0.006283171342534,1.14694785305896e-05,-2.3217924695918345e-05,4.102964808025372e-06,12125,2.466564,2.020657,-70.077587
1.4145389794484302,1.6366986223247382,1.5011546665515405,0.0103980539311086,0.0106318182109652,-0.010901139171607,1.33366906085539e-05,-2.5798598329386497e-05,5.321025275586883e-06,12126,2.398134,2.463437,-70.664063
1.2657357324363503,1.4704078560766012,1.3999051587264535,0.0151909024711781,0.0138788195702601,-0.016069207042714,1.598842120717125e-05,-2.7256334002459965e-05,7.976152232800655e-06,12127,2.315494,3.102341,-71.797218
1.0755802329180346,1.3214340811436454,1.275113156344355,0.0201160062427699,0.0168469573643686,-0.0212988519073188,1.887441980039743e-05,-2.662691323484396e-05,1.180947750773202e-05,12128,2.393567,4.048196,-75.507603
0.8767444229925334,1.1883473386983012,1.140591029683736,0.0243680187412762,0.0189154572407747,-0.0258116320490515,2.0952537739501025e-05,-2.3183572920305606e-05,1.5853153843040553e-05,12129,1.952325,5.461547,-83.24752
0.7158216724202938,1.0436622111320597,1.0013567145208555,0.0275009430697429,0.01978303476392,-0.029149248488609,2.1231120888952563e-05,-1.6816540610567813e-05,1.8935782862854567e-05,12130,1.068518,7.203258,-93.158382
