AccX_processed,AccY_processed,AccZ_processed,GyrX_kalman,GyrY_kalman,GyrZ_kalman,MagX_processed,MagY_processed,MagZ_processed,PacketCounter,Roll,Pitch,Yaw
0.050404003673457,-0.6690742926996901,0.1109156533435873,0.0003193390992591,-8.272025058232431e-05,0.0002278040168806,-3.691813814485095e-07,1.876271748862268e-07,8.900740118188098e-07,11582,2.915637,-2.119565,3.993445
0.1925222773618763,-1.971115146814092,0.3372908916852842,0.0005037551970144,-0.0003515197176996,0.0002816577115386,-1.8727108083971438e-07,1.5489504810681006e-07,9.796998257568178e-07,11583,2.920778,-2.115866,3.965627
0.2618505186723627,-2.584458966883706,0.4460559162652707,0.000775955034406,-0.0007609020361539,0.0003901812519899,-9.183766627584201e-08,1.3956952926398257e-07,1.0419725186735104e-06,11584,2.919992,-2.110077,3.99945
0.206687312556547,-1.8689505238694768,0.3304092190427502,0.0010860780796931,-0.0011863872432131,0.0005971471023174,-8.288113775689255e-08,1.4165061835774446e-07,1.0768920905688878e-06,11585,2.914242,-2.106461,4.045604
0.2016817634405823,-1.8951125381955152,0.3366338249438237,0.0013962807315338,-0.0015523178944142,0.000917046694007,-1.6040149528286573e-07,1.611383153880954e-07,1.0844585414429491e-06,11586,2.912569,-2.079713,3.986272
0.1699658980371536,-1.7759410660518349,0.3208616012203661,0.0016647539282571,-0.0018225130759511,0.001297069372064,-4.305517665111408e-07,2.05050279511852e-07,8.915941929996642e-07,11587,2.910442,-2.070341,3.980543
0.1019386169689231,-1.5211091166237325,0.2818593820412095,0.0018604712824097,-0.0019748023165172,0.0016690504806423,-6.993799782680641e-07,2.660816186254722e-07,8.765336600476932e-07,11588,2.901795,-2.047504,3.966032
0.0634346030303102,-1.44024792049622,0.2681145402476876,0.0019560625360996,-0.0020143466457705,0.0019082043213411,-8.531772653378603e-07,3.126934626823023e-07,9.689291697501495e-07,11589,2.896052,-2.036458,3.942947
0.0512126393215921,-1.2420012127823672,0.235332951198885,0.0019450331053203,-0.0019435978629419,0.0019718706597934,-8.917112716240376e-07,3.3170226472123944e-07,1.032678982687485e-06,11590,2.884709,-2.02826,3.951267
0.0412629974690674,-1.0679875170154431,0.2071557753368885,0.0018456267567319,-0.0017620449520318,0.0019054168425223,-8.934975643861782e-07,3.405509215672812e-07,1.0917255849871277e-06,11591,2.875968,-2.021989,3.955054
0.0278198172650698,-0.920900451178957,0.1802165315005667,0.0016925886101652,-0.0014968248494534,0.0017447341804629,-9.476181041116008e-07,3.612590783714424e-07,1.1774011551587842e-06,11592,2.858457,-2.009284,3.92595
0.0163180938233306,-0.7285143048105205,0.1434388614759321,0.0015475948543492,-0.0012004441154589,0.0015559926494913,-1.1133027698524408e-06,4.071588884972501e-07,1.2447039318202183e-06,11593,2.821497,-1.996093,3.921081
0.0080470326790321,-0.5648651194152412,0.1090814698233691,0.0014385323524656,-0.0008959478875117,0.001370606765824,-1.3763370173343872e-06,4.818069892121439e-07,1.3307217843013303e-06,11594,2.767847,-2.013255,4.039615
-0.002852727016646,-0.3858736111713253,0.0750659947957225,0.0013567522022659,-0.0005787779103792,0.0011734496904813,-1.633229903733194e-06,5.636334243739997e-07,1.512060422559682e-06,11595,2.715754,-2.028812,4.073645
-0.0148699701058983,-0.210346102094497,0.0385254637475549,0.0012948287970342,-0.0002429191926408,0.0009636374490719,-1.8113549842913091e-06,6.261235557535451e-07,1.738989086519867e-06,11596,2.674543,-2.076717,4.174367
0.0065556779646147,-0.0445834339059768,-0.0315435434069178,0.0012281781247302,0.0001343146006016,0.0007338878992025,-2.008997717248393e-06,6.860578620083675e-07,1.9125846723681743e-06,11597,2.644147,-2.122485,4.154081
0.0910376298528239,0.13260047549596,-0.1408545107771338,0.0011516892411212,0.0005508063608777,0.0004878963924308,-2.341311552259428e-06,7.727970342568258e-07,2.0323567331730284e-06,11598,2.620539,-2.157766,4.092406
0.1864652557717026,0.3055809357565961,-0.2435021690860802,0.0010837650665164,0.0009758078664759,0.0002476492120367,-2.7457121496980222e-06,8.692611693467238e-07,2.1201110063046512e-06,11599,2.615725,-2.192272,4.142035
0.2126002743638722,0.4738101461158266,-0.3086110124344419,0.0010341695533254,0.0013803200369692,2.9684871960911985e-05,-3.0845438671213737e-06,9.371668286865976e-07,2.108964355357997e-06,11600,2.648329,-2.177803,4.208797
0.1663981601820253,0.6403567208216375,-0.3364328138244855,0.0010142637230698,0.0017239661812473,-0.0001478244865554,-3.2340538279589717e-06,9.566628996463383e-07,1.972334603287981e-06,11601,2.738514,-2.072932,4.213031
0.1387657400849617,0.800724404942184,-0.3457147835883314,0.0010320420704072,0.0019843910664122,-0.0002713793939651,-3.088227540326355e-06,9.218098405286856e-07,1.841046107870953e-06,11602,2.884053,-1.931868,4.125887
0.1397020634634252,0.9484538190784948,-0.3558690886849357,0.0010882515532982,0.0021618600725264,-0.0003355058701132,-2.6233354787201653e-06,8.288463826766364e-07,1.8183325303482636e-06,11603,2.989112,-1.752517,3.91469
0.0066532236463377,1.08833080894684,-0.344246689082147,0.0011859524232717,0.0022560188256975,-0.0003345670486519,-1.907822597222045e-06,6.772044566941917e-07,1.8078387903574184e-06,11604,3.078547,-1.462208,3.213574
-0.2721249375758192,1.2308262635248233,-0.2809011189602125,0.0013278447951886,0.0022762773474379,-0.0002661260254211,-1.0812362204594108e-06,4.880340404267977e-07,1.6742348002138883e-06,11605,3.206093,-1.160631,2.633004
-0.4491915705634283,1.3740292858802046,-0.2154278487218641,0.001512603701753,0.0022309393119836,-0.0001302873193386,-3.054359538990144e-07,2.993359651893817e-07,1.4231058807356315e-06,11606,3.352745,-0.897699,2.298411
-0.4309616991002371,1.5158178301614065,-0.208927517004631,0.0017350900767166,0.0021265417982307,7.002470987634186e-05,2.888571483493852e-07,1.4096139501810513e-07,1.1335125899696906e-06,11607,3.520408,-0.632684,1.938193
-0.3848747392726059,1.6543590247809976,-0.2102861270189014,0.0019847363415131,0.0019839199991914,0.0003242967797643,6.02233971384604e-07,3.429075951191965e-08,8.397487565492258e-07,11608,3.697973,-0.343879,1.584105
-0.3874045711359719,1.7730818884597177,-0.1382508755225615,0.002243330531421,0.0018381901980258,0.0006126975810472,6.60621359960616e-07,-2.1165250646655893e-08,5.241090863497758e-07,11609,3.900228,-0.149187,1.605576
-0.3711543248505587,1.8791504270940984,-0.0328294601573015,0.0025018214095823,0.0017052163044393,0.0009283754664485,6.231078215432004e-07,-4.9834339663949926e-08,2.3213862230207878e-07,11610,4.128569,0.013068,1.784534
-0.315283058385211,2.003759381503873,0.003751583776218,0.0027603763439296,0.0015824429760696,0.0012776169092774,5.995183415236055e-07,-7.232744676703545e-08,4.863741160977923e-08,11611,4.378096,0.152239,1.900399
-0.2300657784594399,2.1297753776206587,-0.0321135706559432,0.0030182801962321,0.0014654453085985,0.0016676748976454,6.544032372851767e-07,-1.1827943665174958e-07,-1.212448970706845e-07,11612,4.621678,0.321963,1.872272
-0.148860166647008,2.215472149586413,-0.0618328695628331,0.0032785473402187,0.0013382900221366,0.002113443139286,8.84952664079111e-07,-2.204269503059367e-07,-4.421773940236264e-07,11613,4.874453,0.531276,1.811277
-0.1082544071794754,2.2684524110635422,-0.0609360920875223,0.0035367378825646,0.0011978986546516,0.0026225881827831,1.3188070840751831e-06,-3.704549119088996e-07,-8.564448148748045e-07,11614,5.112329,0.782173,1.72248
-0.0749956619111439,2.2983782709416936,-0.0638509179467513,0.0037792065155563,0.001055849664307,0.0031944705757484,1.868246619952584e-06,-5.334720928687596e-07,-1.1912435925142734e-06,11615,5.353797,1.07977,1.653165
-0.0373760990821305,2.2939315401246287,-0.0805272731598883,0.0039912054435688,0.0009191378185924,0.0038328693501997,2.4455286228484936e-06,-6.969364728308104e-07,-1.448863348815316e-06,11616,5.618347,1.407885,1.628815
-0.0265828726496114,2.2806780099044777,-0.0992400041662575,0.004152629723268,0.0007968412845775,0.0045423053009031,3.055084660341165e-06,-8.777356120739204e-07,-1.7937515963371943e-06,11617,5.870119,1.823779,1.487885
-0.0385429188349462,2.269418998908355,-0.1183959642595853,0.0042487061322221,0.0006947599956516,0.005315544439092,3.689654988408371e-06,-1.0726644363337245e-06,-2.241423778236408e-06,11618,6.087044,2.314377,1.413525
-0.052779934365172,2.22329623321548,-0.1392040119838802,0.0042708352749788,0.0006131243359364,0.006132734558722,4.2758872948725726e-06,-1.252329721306127e-06,-2.6316613075944563e-06,11619,6.342312,2.882621,1.382301
-0.0520507275487693,2.159487362522278,-0.1603274201496204,0.0042077114915076,0.0005538827077668,0.0069623000651517,4.8993292418920565e-06,-1.4419146630032772e-06,-2.9913877762581083e-06,11620,6.590982,3.55593,1.329313
-0.0552921192223633,2.1315853202715878,-0.1829664541297161,0.0040481268979864,0.0005185209725289,0.0077541793456278,5.819506965606894e-06,-1.713949441092077e-06,-3.4975884494136554e-06,11621,6.941011,4.353515,1.259158
-0.1372662324018238,2.1299317286728767,-0.2079367360280666,0.003774529192591,0.0005071437130695,0.0084446542756836,7.106548668948026e-06,-2.077372683966939e-06,-4.112340178372654e-06,11622,7.304376,5.301193,1.084643
-0.3591724310007207,2.119380693314694,-0.225304163249592,0.0033608178741196,0.0005189273924391,0.0089497368065373,8.509103694578492e-06,-2.463538058566807e-06,-4.68445954696645e-06,11623,7.716004,6.393171,0.95113
-0.6917651252465681,2.088725358716559,-0.234171130914114,0.0027760147823555,0.0005503120062722,0.009148440876456,9.770193380032266e-06,-2.821590801227356e-06,-5.2445818075797385e-06,11624,8.162649,7.523835,1.202035
-0.9673041795824144,2.053761940078611,-0.2472541483378762,0.0019802440141014,0.0005943110057008,0.0088722840534235,1.082903668005477e-05,-3.1478941257857062e-06,-5.886412112403174e-06,11625,8.654325,8.701103,1.777815
-1.058547467347137,2.0328170626529456,-0.2490477408811123,0.0009574097390547,0.0006479660070637,0.0080287372680102,1.1566814451712983e-05,-3.4039982749455626e-06,-6.512928725485461e-06,11626,9.005187,9.889312,2.616441
-1.1145848318684777,2.0202759676437667,-0.249873034663241,-0.0002814228073646,0.0007122354731415,0.0066049762214702,1.168213932569445e-05,-3.500337146474548e-06,-6.925448413980554e-06,11627,9.287876,10.968585,3.966814
-1.287957199520088,2.082824712737533,-0.3278701990215693,-0.0017143117859036,0.0007877391613392,0.0046016333804046,1.107051290965774e-05,-3.4094844597944138e-06,-7.108677297412071e-06,11628,9.560433,11.878887,5.763215
-1.4499843054969517,2.302173001282556,-0.4804126128571198,-0.003294937504976,0.0008767510120163,0.002073051235699,1.0072335678418833e-05,-3.211936229679867e-06,-7.177914821082754e-06,11629,9.528719,12.737118,7.468569
-1.4857601884408391,2.5264189773082784,-0.5920471264214061,-0.0049669360639517,0.000978127112487,-0.000928140077029,9.157910752401362e-06,-2.9976600109728475e-06,-7.080239036410196e-06,11630,9.464505,13.405101,9.321562
-1.454045355713606,2.5320181989540997,-0.6181904525757587,-0.0066584190289648,0.0010865339869237,-0.0043467420774919,8.555144644005378e-06,-2.79459202256101e-06,-6.648329446919855e-06,11631,9.240906,13.623531,10.906617
-1.3653882818986998,2.3755977123646,-0.5968333316436125,-0.0082545376113655,0.0011960172498382,-0.0080518927759545,8.231011610361626e-06,-2.592279096271078e-06,-5.84388589699069e-06,11632,8.399183,13.561277,10.651145
-1.1587875286212268,2.224825049593352,-0.5277822729193772,-0.0095888069403283,0.0012980545863323,-0.011832820960368,7.884772911889489e-06,-2.342781177792991e-06,-4.765736153717099e-06,11633,6.717457,12.989798,8.619584
-0.7811354212783994,2.0995800449570936,-0.4347769184859323,-0.0105753038279392,0.0013928320241802,-0.0155251838526329,6.849952967791159e-06,-1.9230929396310994e-06,-3.5139302888188303e-06,11634,4.705986,11.544892,6.486783
-0.2430318448706301,1.9754091303088772,-0.3988867033160356,-0.0112113207027216,0.0014908614305181,-0.0189959228737903,4.380823144298541e-06,-1.1822561675173135e-06,-2.073881278756245e-06,11635,2.977805,9.213265,5.718313
0.3636478023761571,1.8049270914038131,-0.4224089194566415,-0.0115079131520587,0.0016072749320963,-0.0220618310967229,3.157455686000119e-07,-9.153526348223844e-08,-4.2188418348377275e-07,11636,1.599635,6.222776,6.699818
1.04418418066852,1.5317112552909382,-0.4287745178305042,-0.0115322142537566,0.001766897273799,-0.0245067471419281,-4.678759310085724e-06,1.1891183701114656e-06,1.2890007811103902e-06,11637,0.304569,2.859022,8.43678
1.816576091503204,1.2573048530333064,-0.396186769295088,-0.0113215982370548,0.002000501098317,-0.0261527716854973,-9.71091419049443e-06,2.4483191904884376e-06,2.850469728108628e-06,11638,-1.134162,-0.622313,9.341624
2.386902418777215,1.101503224126228,-0.3685454486396679,-0.010882489928456,0.0023474498197064,-0.0268532218357547,-1.4297675296428725e-05,3.573294706850967e-06,4.205077598385194e-06,11639,-2.570507,-4.121143,8.884666
2.471467957047385,1.0131662472441347,-0.3394194518715503,-0.0102736369746103,0.002865952587392,-0.0264657401646176,-1.834325262349792e-05,4.545990407862091e-06,5.38982748012929e-06,11640,-3.706446,-7.578765,7.868318
2.324991922019328,0.9264059762811132,-0.2979892720077727,-0.0095935928627234,0.0036377033657471,-0.0248706237882897,-2.185830821720692e-05,5.36780511238333e-06,6.335524670194682e-06,11641,-4.550131,-10.863733,7.403944
2.263879465965591,0.8085180694236805,-0.3287755492890499,-0.0088883702408319,0.004658612342583,-0.0220570821817216,-2.4632488223494663e-05,5.979509130252439e-06,6.82993680763526e-06,11642,-5.397933,-13.857585,7.693517
2.3155333099493154,0.6229658258824857,-0.4137209045125247,-0.0081580033668695,0.0058273887209452,-0.0181479045833297,-2.6052760372241168e-05,6.245000839069984e-06,6.744242941322465e-06,11643,-6.110242,-16.434753,7.531123
2.520483046115801,0.4747027137420316,-0.4785389414605382,-0.0073940323512438,0.0069897608532815,-0.013403246946455,-2.5552820678158645e-05,6.064793542659604e-06,6.165716191304934e-06,11644,-6.362492,-18.179681,5.73427
2.7203967772067865,0.4644154481033329,-0.7109257074820914,-0.0065540958985438,0.0078893415972851,-0.008289531591748,-2.3115694767746147e-05,5.4570010832448665e-06,5.225310782919478e-06,11645,-5.549598,-18.738233,1.827494
2.8145333582411998,0.4626224459321703,-1.196913107210762,-0.0056401821526214,0.0084017405927738,-0.0031583404622619,-1.9148222407410008e-05,4.51634173928892e-06,4.041090946994956e-06,11646,-4.140565,-17.606566,-3.200728
2.769234876012116,0.3871813263352198,-1.546983650168528,-0.0047039223242981,0.0085443886651042,0.0017330210970514,-1.422941539255562e-05,3.383056996141318e-06,2.871633436458236e-06,11647,-3.21548,-14.774276,-8.498984
1.8797553153059428,0.3056207840243142,-1.5215800443210483,-0.0037908249100935,0.0083240154801125,0.0059713949254618,-9.08621732805007e-06,2.2334407823346386e-06,2.0013745308231404e-06,11648,-4.643613,-15.17915,-9.796384
0.0130661149321389,0.1667591291784345,-1.3536304134811723,-0.0029634879758963,0.0078055120764124,0.0090329476967942,-4.455372878236345e-06,1.2217014732684174e-06,1.477455116297868e-06,11649,-2.75109,-9.48378,-10.721242
-1.3774179268742457,-0.0756320901153626,-1.1684449304615012,-0.0022573245943763,0.0070276872864724,0.0107113788333662,-6.927136637785281e-07,3.996985769820949e-07,1.1499972440712308e-06,11650,-3.091508,-8.470279,-13.344223
-1.4581126576654555,-0.303997635051344,-0.9181037432977684,-0.0016726752653814,0.0059944164754834,0.0111337631215367,2.252940287207186e-06,-2.559879475327581e-07,9.135333204583872e-07,11651,-2.817552,-6.216224,-16.811963
-1.2055961764155083,-0.4423792920815884,-0.6979642913067012,-0.001212135875747,0.0047776841216418,0.0106184646025244,4.322901218043985e-06,-7.208895758106621e-07,7.903968224779023e-07,11652,-3.095762,-5.338874,-16.427512
-1.274088620239448,-0.487964205644337,-0.5647248271509095,-0.0008648093738275,0.0035057519852842,0.0098507391142646,5.356437557339007e-06,-9.561570907980054e-07,7.511513320169143e-07,11653,-3.275093,-4.670097,-16.653698
-1.2761721856036283,-0.4491762136773579,-0.4528489889680795,-0.00061985794324,0.0022569434084622,0.0091230392078538,5.630493349361257e-06,-1.0370298405457796e-06,6.651618190985242e-07,11654,-3.496144,-4.063148,-17.67694
-1.1712515868002094,-0.4154483749952379,-0.3549071414592163,-0.0004677404825749,0.0010726021255569,0.0083192256883311,5.706704689062663e-06,-1.0858378222965285e-06,5.145050843800013e-07,11655,-3.721543,-3.696374,-17.782967
-1.1246778335946166,-0.4433531713813913,-0.2815187103921212,-0.0003772641654242,7.20370781770582e-06,0.0074390604285482,5.81474875583258e-06,-1.134896190292889e-06,3.878759039910139e-07,11656,-3.923681,-3.234313,-17.798649
-1.0550058385185852,-0.4828080535058696,-0.208968546749161,-0.0002948992693123,-0.0008928352610793,0.0064017829687504,5.849483073986848e-06,-1.155474477142459e-06,3.01681165800732e-07,11657,-4.070248,-2.758597,-18.109683
-0.9749016953407564,-0.5197569360138459,-0.1489350259516209,-0.0001971173986085,-0.001587287911059,0.0052159225993026,5.795729854166407e-06,-1.1505153670064544e-06,2.556420437263844e-07,11658,-4.205855,-2.33957,-18.516457
-0.9186709547873813,-0.5619697904900991,-0.1131710987156589,-8.929732986011672e-05,-0.002040429299975,0.0040348810227755,5.769264950190143e-06,-1.1459053650289558e-06,3.165502459006857e-07,11659,-4.305701,-2.004657,-18.662442
-0.8691851522158092,-0.599695158494955,-0.0802281446203714,2.0581139427099327e-05,-0.0022391262996476,0.0029320603270248,5.799566345777057e-06,-1.1461208394240143e-06,4.87702148003577e-07,11660,-4.365453,-1.679368,-18.897575
-0.8406996461682801,-0.6276857318597967,-0.0370458948333905,0.0001068765048278,-0.0021970893699534,0.0019555970692916,5.845107849971347e-06,-1.1491028414227124e-06,6.388019021680834e-07,11661,-4.453848,-1.390939,-19.261853
-0.874837676546504,-0.5939017427272633,0.017805151664189,0.0001636756850743,-0.0019442660509535,0.0011410470863969,5.863276333811965e-06,-1.1553904679123792e-06,6.615198267017079e-07,11662,-4.556683,-1.127267,-19.483702
-0.9405281916120918,-0.4861726735617805,0.0731532536881671,0.0002076589463665,-0.0015379656056236,0.0004778630539225,5.762978441815373e-06,-1.141673752071447e-06,6.193166610176788e-07,11663,-4.654002,-0.897996,-19.607964
-0.967616755664834,-0.3966059100830318,0.1122886372660602,0.0002483655530509,-0.0010840109898533,-6.480316388198263e-05,5.418601912657981e-06,-1.066128664526501e-06,6.554961312276123e-07,11664,-4.753666,-0.687653,-19.852146
-1.0151431430029096,-0.405427569127936,0.128326419141014,0.0002984471008634,-0.00075043867328,-0.000555177873453,4.795034425745978e-06,-9.192570125203518e-07,7.678292083199721e-07,11665,-4.824413,-0.524365,-19.933406
-1.1170614623203226,-0.4561438056965254,0.134905078072932,0.0003652037279047,-0.0006124283272841,-0.0010109011840227,4.0162970074859706e-06,-7.422254929757218e-07,8.363502674407174e-07,11666,-4.943822,-0.430464,-20.031832
-1.1739470821436333,-0.386211230227092,0.1625543462344714,0.0004469596988439,-0.0006486107867818,-0.0013931807200917,3.26583219738107e-06,-5.816551236270626e-07,8.327056358776986e-07,11667,-5.062144,-0.375928,-20.059581
-1.1409911958793706,-0.2024567635028412,0.2066750461009055,0.0005442826313414,-0.0008265039992645,-0.0016663270530285,2.679958034957394e-06,-4.608540004233153e-07,8.052261133455975e-07,11668,-5.197637,-0.415815,-20.104363
-1.075390016902324,-0.1021920777209239,0.2415053292339899,0.0006564253561985,-0.0010537776837995,-0.0017704053087893,2.24360431274831e-06,-3.705933524872725e-07,7.399312837886195e-07,11669,-5.34278,-0.531818,-20.24638
-1.0299517776987688,-0.1149977452156083,0.2710436881021175,0.0007798415753845,-0.0012808698731497,-0.001688436326839,1.6317115509788433e-06,-2.4042493449420734e-07,5.844029976238741e-07,11670,-5.471469,-0.656494,-20.306462
-1.0141932811270191,-0.1146954869359813,0.2774207949747234,0.0009086208139586,-0.0015056698916953,-0.0014561232442881,4.689313012131113e-07,9.328645331815752e-09,3.998036309315673e-07,11671,-5.645644,-0.760916,-20.220352
-0.9924777026117648,-0.0957404631261883,0.2259390412252675,0.0010312198058965,-0.0016793677469383,-0.0011115801701721,-1.0954812478826102e-06,3.449504334335075e-07,3.182969145956511e-07,11672,-5.765274,-0.816528,-19.913929
-0.8912548595566228,-0.1077855851147427,0.1722980521793712,0.0011289208685302,-0.0017267090586482,-0.0007195718399371,-2.511276265640101e-06,6.42834357493169e-07,3.155635341718538e-07,11673,-5.698079,-0.756706,-19.288374
-0.6667991054834719,-0.223477072016024,0.1978640369190507,0.0011938293252518,-0.0016147942859349,-0.0003107138693151,-3.4787229292603054e-06,8.349369814827937e-07,2.719751871935048e-07,11674,-6.477686,-1.525108,-16.354759
-0.435641528857753,-0.5559454172826513,0.2799969561536178,0.0012291929468077,-0.0013460520777058,0.0001253293526706,-4.059603158183636e-06,9.35277968921514e-07,1.5120171191992086e-07,11675,-5.740145,-0.363822,-15.525206
-0.3541165501345525,-0.9439620796725324,0.3625887132950813,0.0012397698705035,-0.0009400781567203,0.0005915669004825,-4.3425906904159445e-06,9.676204476415258e-07,-2.39463653113504e-08,11676,-5.271871,1.502395,-17.00912
-0.1624238970669408,-1.0794879364602754,0.4548301997017436,0.0012374721574047,-0.0004541526757988,0.0011024792250946,-4.374912911177147e-06,9.577711072695723e-07,-1.6886371196882766e-07,11677,-5.383548,1.252327,-15.833266
0.4608160598543904,-1.0145483347326183,0.6056640240145245,0.0012303352485052,7.733063672734296e-05,0.0016531992736685,-4.359196559543747e-06,9.635594656653672e-07,-1.8072996384968525e-07,11678,-5.500029,2.192236,-16.185802
0.9708949511169176,-0.9585629425456956,0.7552844195766406,0.0012222666074929,0.0006410037672548,0.0022128642472642,-4.522148129627129e-06,1.0266773076511534e-06,-6.21421085768102e-08,11679,-5.294991,2.327318,-14.626319
0.6761874007758759,-0.9264714874920912,0.7182730135291269,0.0012238501170835,0.0011943232003993,0.002752619779153,-4.724153615007791e-06,1.100245641630798e-06,1.0977949058827386e-07,11680,-5.433179,2.67019,-15.682322
-0.0042356972703847,-0.9049171400278628,0.5016895890292679,0.0012506813530807,0.001674945026808,0.0032342129519798,-4.623736153670541e-06,1.1085998345711798e-06,3.147477297104736e-07,11681,-5.774874,3.045446,-17.378382
-0.3415743207067732,-0.9116583734803736,0.3587195241053642,0.0013107045572734,0.0020516941802,0.0036363810857022,-4.182174099819856e-06,1.0518443020401473e-06,6.03613519220869e-07,11682,-5.956855,3.413333,-17.439485
-0.3977737359035602,-0.9038625931834996,0.3775972613890693,0.0014048649830602,0.0023214629607913,0.0039594200931113,-3.665481334606434e-06,9.825081132960457e-07,9.479498957603168e-07,11683,-6.059041,3.858647,-16.924863
-0.4930765824312288,-0.8666816221355493,0.4059954731487557,0.0015320113329946,0.0024911369796009,0.0042045900476902,-3.2865034181766404e-06,9.36729529860502e-07,1.2683408813105523e-06,11684,-6.260195,4.300178,-17.249128
-0.6361610429799555,-0.8327962741675436,0.3823838334415924,0.0016850764353998,0.0025931505028107,0.0043840266651782,-3.0493812642513543e-06,9.238294067150914e-07,1.6173201398687935e-06,11685,-6.564567,4.843981,-18.094226
-0.6842382133593022,-0.8033582354183715,0.365699693169235,0.0018610561617475,0.0026422898585564,0.004510147247074,-2.9101033399471605e-06,9.445617391357834e-07,2.0482894166764e-06,11686,-6.603712,5.413764,-18.114071
-0.4757971893143552,-0.765588892640315,0.3615909522713252,0.0020610394939891,0.0026358848997718,0.0045957760717374,-2.919507142156523e-06,1.0000242813929331e-06,2.433871245499889e-06,11687,-6.591047,5.941397,-17.745698
-0.0807011938328153,-0.7275946097618177,0.348663402037087,0.0022817481432065,0.0025897072938954,0.0046704578198789,-3.1175537708629337e-06,1.0846471692849451e-06,2.651383746532008e-06,11688,-6.759007,6.471651,-17.987626
0.1705922069681491,-0.6973184973881377,0.3176123932871476,0.0025173445988514,0.0025301826366799,0.0047814578336709,-3.4304859900144163e-06,1.1848477859552023e-06,2.7619749287694618e-06,11689,-6.811228,6.868482,-17.966009
0.1966125908068398,-0.6544305184415867,0.275821521507512,0.0027648120637844,0.0024681502344903,0.004952800963258,-3.741563846566804e-06,1.282058677429337e-06,2.8415314386966326e-06,11690,-6.715228,7.210758,-17.606811
0.1966249243937613,-0.569452050598448,0.2605423686407246,0.0030230942890115,0.0024017265619901,0.0051860251824307,-3.962143606778419e-06,1.351774188558433e-06,2.848780735460576e-06,11691,-6.606214,7.575305,-17.074426
0.2367629517967234,-0.4681887779515346,0.279891083755027,0.0032914963155923,0.0023237764825029,0.0054813635981656,-4.018279581732205e-06,1.371499930357184e-06,2.769158826316339e-06,11692,-6.465872,7.982281,-16.696476
0.2655332008211687,-0.4125010384375227,0.3087363817939467,0.0035709151827836,0.0022144638559611,0.005826075774928,-3.8733747040618255e-06,1.335195319186764e-06,2.651706810054666e-06,11693,-6.39356,8.443273,-16.611719
0.2844077436383131,-0.3957130602627311,0.3356491395434354,0.0038580227845146,0.0020662189523876,0.0062242209340286,-3.5492593819097875e-06,1.2542036308515523e-06,2.524133629784156e-06,11694,-6.29146,8.987399,-16.521677
0.3132945856663874,-0.3782620751805989,0.3571035814320893,0.0041446216012704,0.0018841460666298,0.0066994188054671,-3.025060488227211e-06,1.1280460221005486e-06,2.4077792079229543e-06,11695,-6.165765,9.63614,-16.394734
0.3392652447769207,-0.3646926993035942,0.3683432078550054,0.0044207541602133,0.0016676651148129,0.007272013897816,-2.217479803438258e-06,9.326671185069332e-07,2.29730661966809e-06,11696,-6.020338,10.441961,-16.321841
0.308085624424094,-0.3614478227079407,0.3673079259663039,0.004672335641135,0.001416431889247,0.0079680376350493,-1.1214581225804157e-06,6.591600949870749e-07,2.125699462742677e-06,11697,-5.876123,11.394015,-16.396418
0.2068022699925527,-0.3703387601696731,0.3582127103345232,0.004890728742506,0.0011300722659429,0.0088029630858989,1.5860273105796737e-07,3.3426918762474175e-07,1.849799941627172e-06,11698,-5.715204,12.408813,-16.48239
0.1205648794311738,-0.3630452572710742,0.35223228404006,0.0050733169302866,0.000806286998461,0.0097782977020234,1.5197884090519223e-06,-7.149445397867338e-09,1.5491011727370374e-06,11699,-5.442102,13.510361,-16.594252
0.1206972026034734,-0.3477244059778214,0.3518423097440891,0.0052170387560969,0.0004451143690607,0.0108953445853944,2.940488775161467e-06,-3.562627296924323e-07,1.318214601058642e-06,11700,-5.159237,14.593176,-16.753952
0.1723293230157236,-0.3840816207991819,0.3618836057241589,0.0053212829981845,4.8546929840176e-05,0.0121489352525349,4.411274243489857e-06,-7.21877593197965e-07,1.0844772594366916e-06,11701,-4.694037,15.645817,-16.625716
0.1849271095458655,-0.3749762155020984,0.3965503047668523,0.0053823926772328,-0.0003837243690415,0.0135315675102678,5.842786862656757e-06,-1.0941062883503112e-06,7.234232322806571e-07,11702,-4.27445,16.830988,-16.778402
0.1884999195627094,-0.4560968499382397,0.4317391632430689,0.0053928901493828,-0.0008538446591644,0.0150330786679565,7.222809402841615e-06,-1.4716971601625334e-06,2.203153287041844e-07,11703,-3.838194,18.130741,-16.620874
0.312219618405824,-1.087605391489713,0.4663252765178547,0.0053463169672158,-0.0013640850484911,0.0166311446909569,8.792002817973112e-06,-1.9138291540814328e-06,-4.2502552165614665e-07,11704,-3.163413,19.564082,-15.932808
0.5742125459780075,-2.0311324201182908,0.5986638261144881,0.0052355512932519,-0.00191785701875,0.0182894284222532,1.0875695299820632e-05,-2.4995352145171687e-06,-1.2260762852294645e-06,11705,-2.489865,21.224247,-15.244729
0.7699857033585464,-2.454831877237212,0.8177302000455022,0.0050517098825113,-0.0025134788572117,0.0199207975488097,1.3592488722898872e-05,-3.2464611466113694e-06,-2.0892071478057223e-06,11706,-1.826741,23.359106,-14.630638
0.6975364139580832,-2.1993011341804074,0.9136853579972958,0.0047841785763844,-0.0031432166113559,0.021373054003985,1.6807648123037413e-05,-4.107147286445477e-06,-2.8435390374400446e-06,11707,-1.275864,26.048981,-14.36633
0.6886780524842937,-1.936013323936392,0.8355609660599708,0.0044192572477749,-0.0037961183574228,0.0224285295677653,2.0268384578543957e-05,-5.027066603310201e-06,-3.481587272253568e-06,11708,-1.025234,29.229181,-14.471808
0.8234251228503255,-1.927472906964677,0.7860070064765482,0.003939127588693,-0.0044550297480282,0.0227713860684907,2.3668408298849586e-05,-5.962828063519763e-06,-4.226705864608895e-06,11709,-0.507664,32.668397,-13.861717
0.1855785419620059,-1.477428731310162,0.848187964419689,0.0033219685656413,-0.0050978629084843,0.0221489604792125,2.666363298844473e-05,-6.855999676824024e-06,-5.279271865729551e-06,11710,0.882665,36.013402,-11.970857
-1.2590781101142134,-0.4646070772875798,0.8974092260505298,0.0025401220962645,-0.005695593742483,0.0203640252082334,2.887317166168069e-05,-7.62323138398014e-06,-6.728017592724068e-06,11711,1.784946,39.355207,-10.569612
-2.2251564765578773,0.4455826980329267,0.83801655807347,0.0015569560496975,-0.0062061693655289,0.0171534666393591,2.9890659872266624e-05,-8.16728719668659e-06,-8.620842738522618e-06,11712,4.916555,41.756811,-5.82656
-2.453526490958648,1.5694154792453794,0.7388328118310205,0.0003239093509174,-0.0065708428919701,0.0122151711248038,2.9499187583250955e-05,-8.410174964460972e-06,-1.08337310234059e-05,11713,7.776701,43.536253,-2.266505
-2.660805483771759,3.267563977695919,0.7550881690814812,-0.0011682745239961,-0.0067580240787289,0.005523787207613,2.785224446797377e-05,-8.320491331171632e-06,-1.2956290712755908e-05,11714,11.058129,44.610923,2.400498
-2.7949715878749126,4.34687924114033,0.9056138251678078,-0.0028843840459811,-0.0067646605163778,-0.0026335738741442,2.5300661687142973e-05,-7.902413701278487e-06,-1.4468563416146346e-05,11715,14.11957,44.004775,7.888098
-2.5534155491326387,4.092241311786313,1.0695119379729363,-0.0047666143940169,-0.0065928970596474,-0.0117406729703662,2.2148284541343773e-05,-7.189753160250848e-06,-1.5075890862813173e-05,11716,15.792339,41.455243,11.918908
-2.1109647028691665,3.5494628002326225,1.155707389265561,-0.0067121492446606,-0.0062644931934744,-0.0208906709725248,1.8640297759917178e-05,-6.253723475265845e-06,-1.4770241187147202e-05,11717,14.014049,38.648014,11.068076
-1.4893916976698622,3.3604721288161525,1.1317842078546498,-0.008628044480641,-0.0057935504515224,-0.0295167199823052,1.503848200015756e-05,-5.183877143856786e-06,-1.3617411100339368e-05,11718,11.870029,34.904461,9.577127
-0.8395760113301279,3.165102204684459,1.0337925205047116,-0.0104260017307779,-0.005186733776978,-0.0373868599877517,1.1409847158139814e-05,-4.022697231048284e-06,-1.172817269596902e-05,11719,9.681791,30.556425,8.501469
-0.558817430348755,2.741321649858953,0.9229550366811244,-0.0119665386702853,-0.0044715097216315,-0.0440803024009823,7.391377630403906e-06,-2.727240088348204e-06,-9.342872349530604e-06,11720,7.233589,25.458486,7.097812
-0.4604982362959102,1.8521600565930807,0.7650047284296047,-0.0130600519931796,-0.0036934391778247,-0.0491487584925847,2.5852835902922065e-06,-1.2562299061506882e-06,-6.757651613995644e-06,11721,4.506275,19.813381,5.410916
-0.1057878237027525,0.5990379887471539,0.5177976712242927,-0.0136095118017437,-0.0028708206652452,-0.0522726509313016,-2.948089775179671e-06,3.44944041326895e-07,-4.150350129457323e-06,11722,1.750607,13.988487,3.268752
0.5455371188856772,-0.3405237887864576,0.287104960914396,-0.0136129519614606,-0.0019959577018328,-0.053227718246213,-8.967019542487465e-06,2.0106012515670037e-06,-1.5483941284154823e-06,11723,-0.374348,8.035444,1.800252
1.1530571918201118,-0.7155725356360387,0.1481450249378077,-0.0130989919254827,-0.0010551492418613,-0.0519398987788953,-1.553242488871451e-05,3.744233264002338e-06,1.0409222269154813e-06,11724,-2.029405,1.987474,1.904483
1.416567409925935,-0.799231041409637,0.0020557666999425,-0.0121761090758369,-1.4872462791742404e-05,-0.0485508580576785,-2.2763150254309542e-05,5.567695670856016e-06,3.6328161927464e-06,11725,-3.577501,-4.134061,2.653394
1.7222187045379274,-0.9185131798229288,-0.1733339499002795,-0.0109242259884398,0.0011126326333078,-0.0431990769833735,-3.011996751680459e-05,7.364963621278612e-06,6.182559239803718e-06,11726,-5.148765,-10.060149,3.251391
2.51555286456248,-1.2042566215642545,-0.2795289320027814,-0.0093994111945502,0.00226234022237,-0.0360729427653423,-3.62116989649098e-05,8.81509759280196e-06,8.285036518841277e-06,11727,-6.968563,-15.580807,4.908266
3.317425104487466,-1.4549403140044186,-0.3169371843749201,-0.0077413959869277,0.0033535390383703,-0.02763226894944,-3.970698204855957e-05,9.611215189662228e-06,9.434341263310194e-06,11728,-9.233156,-20.447972,6.760827
3.5075327613500864,-1.502978964062423,-0.3158725694013609,-0.0061648142843864,0.004264161546875,-0.0186354421415656,-4.0469028588162526e-05,9.76671751302856e-06,9.764169336652814e-06,11729,-9.599551,-22.834023,5.57488
3.270510197358002,-1.4353210462898298,-0.3023092312085679,-0.0047766997687853,0.0049333331417915,-0.0097235091865279,-3.925201490732151e-05,9.518031429279477e-06,9.864043448574464e-06,11730,-9.21273,-22.589919,4.097072
3.0503608832150397,-1.3632360130282386,-0.4442891214067969,-0.0035816874994825,0.005369033138488,-0.0014816281315197,-3.6701197702770455e-05,9.015646299596722e-06,9.887220292350817e-06,11731,-7.494784,-19.978146,-0.013237
2.854437522609959,-1.3520185440011667,-0.812603339677549,-0.0025655858374453,0.0055802278690983,0.0055876001618247,-3.332250283176935e-05,8.330114733821802e-06,9.611594009119528e-06,11732,-7.233417,-17.483781,-3.289206
2.5621173684035257,-1.417343778752979,-1.1312244543109509,-0.001641067633829,0.0056099472130344,0.0111630720353398,-2.9520226316676725e-05,7.531197940711804e-06,9.065063864953814e-06,11733,-12.259082,-16.535706,4.089918
2.2747097763511737,-1.4008789931609371,-1.1673903334668874,-0.0007870180313146,0.0054806799538055,0.0150209146307841,-2.5205537136477813e-05,6.597470331806015e-06,8.408364963896349e-06,11734,-9.019188,-12.938082,-2.068629
2.082157426805121,-1.1862712362349392,-1.063419312398997,-5.457881308728999e-05,0.0051902682410898,0.0171158601382571,-2.017595946439734e-05,5.465914285125046e-06,7.54849333381028e-06,11735,-7.535231,-10.634864,-2.379191
1.95259295370802,-0.985057013153794,-1.0172407457442698,0.0005466114080744,0.0047688431894844,0.0177765453565302,-1.50613392047781e-05,4.271483270400473e-06,6.44786607041664e-06,11736,-6.720105,-8.006147,-6.95647
1.7995806762823463,-0.9759643804882084,-0.999438654973832,0.0010158991432689,0.0042690393522658,0.0178103435907872,-1.1089213211294457e-05,3.3376953052895087e-06,5.583924312945895e-06,11737,-7.060963,-6.417829,-9.571117
1.5626066878001097,-0.9843825863814568,-0.9490984591099016,0.0013637020328697,0.0037154682685009,0.017559082385018,-8.63121214055873e-06,2.79959670255692e-06,5.406841151560858e-06,11738,-7.284909,-3.92242,-11.037406
1.395245008538462,-0.8723613896480584,-0.973677484437442,0.00162777263288,0.0031098897088446,0.0169296367107621,-7.025665051469463e-06,2.490202033227721e-06,5.639711323455641e-06,11739,-7.605181,-1.927851,-5.829334
1.3509157226390898,-0.7670378857805213,-1.1440031584784949,0.0018551581793149,0.0024497085204454,0.0159932109430037,-5.764210393956078e-06,2.2395206618222164e-06,5.729948224885468e-06,11740,-6.923522,-0.710852,-1.96764
0.9719772321542396,-0.7457137769110227,-1.2586288778595696,0.0021124938979767,0.0017148956175176,0.0147686068000419,-4.631236356833341e-06,1.9790216462199643e-06,5.531315329712044e-06,11741,-7.747705,0.891314,-6.985994
0.1813906659733641,-0.7331118866853221,-1.1533929808932388,0.0024331087846086,0.0009125788155046,0.0133447352038788,-3.31224700353246e-06,1.6623229819556514e-06,5.252895731985347e-06,11742,-7.868914,2.321565,-9.714697
-0.1807841818117909,-0.698943036448533,-0.99002508409681,0.0028119913254897,8.050817695184204e-05,0.0119449426292251,-1.886168560182311e-06,1.3261132016341893e-06,5.0657145344105146e-06,11743,-7.775012,3.357006,-7.439498
0.1388254823250412,-0.6658008047557112,-0.9119473233379384,0.0032392789445862,-0.0007424842525407,0.0107225169591389,-9.833671940361848e-07,1.0964794442953108e-06,4.910095168543721e-06,11744,-7.300454,4.009652,-4.869248
0.2658475230473492,-0.6300464294055989,-0.8543651926279856,0.0036815354770899,-0.0015019697348838,0.0098078533574092,-7.948149803876952e-07,1.0026776229411672e-06,4.664511563573742e-06,11745,-7.10934,4.956246,-4.665937
-0.1557036783760734,-0.5966441083143103,-0.7873374246579913,0.0041320203659871,-0.0021659510620852,0.0093149651257592,-6.423216743815547e-07,9.092326263791602e-07,4.33598698338802e-06,11746,-6.981167,5.9743,-4.941997
-0.4782412952077916,-0.5663771549213852,-0.7227755089917448,0.0046145749484838,-0.0027293000410533,0.0093092419146234,-4.859001082860635e-09,7.17156018904264e-07,3.991057473012978e-06,11747,-6.5897,6.964046,-4.247436
-0.3376521589887195,-0.528954101813488,-0.6449948979855087,0.0051439349471716,-0.0031849680320706,0.0098318502759814,8.608807242872719e-07,4.742645604591605e-07,3.605367011599627e-06,11748,-6.130292,8.040328,-3.717897
-0.0358341938581737,-0.4981484250616729,-0.5768450043790079,0.0057397096057306,-0.0035364411053859,0.0108804294111049,1.595703124869762e-06,2.4364577827126296e-07,3.1012751822655264e-06,11749,-5.629271,9.17554,-3.435747
0.1254100741703847,-0.4596294531952181,-0.5141707930847115,0.0063984832411831,-0.0037808326144256,0.0124230098104779,2.278871140022119e-06,1.180065484660978e-08,2.492914131074318e-06,11750,-5.087388,10.38755,-3.00978
0.0409206520679643,-0.4307828540591277,-0.4356552370711751,0.0070859313163272,-0.003906736992205,0.0143859223463326,3.198150860168417e-06,-2.750201579153749e-07,1.8375931258377128e-06,11751,-4.562333,11.673103,-2.570373
-0.1222761216344476,-0.5362825442397072,-0.3431205262257528,0.0077565475618757,-0.003913615919754,0.0166074649555834,4.487402390741539e-06,-6.510076797751122e-07,1.1188629974434848e-06,11752,-3.99556,13.056872,-2.108653
0.1216527817234466,-0.760492373237847,-0.1626869776287,0.0083393682160067,-0.0038085589067907,0.0188155454144278,6.075920346381134e-06,-1.1067103552671922e-06,3.0697237309832934e-07,11753,-3.331207,14.526468,-1.418634
0.817362276750367,-0.9076280491518044,0.1127939999745659,0.0087942517070135,-0.0035988955826419,0.0208582918612359,7.907450752832743e-06,-1.62451621142922e-06,-5.320582454850263e-07,11754,-2.568181,16.202061,-0.865594
1.2834564730859546,-0.9696939497769383,0.3075113207269379,0.0091149960881764,-0.0032959555446268,0.0227005263452775,1.0056325124675676e-05,-2.2155369649654347e-06,-1.320528989023264e-06,11755,-1.80222,18.245408,-0.633591
1.2119692901069732,-1.0461286039440487,0.342140642954435,0.0092898510691189,-0.0029188885977515,0.0242855547335801,1.2555492138603117e-05,-2.907484674489852e-06,-2.225758234199417e-06,11756,-1.124114,20.73146,-0.423523
0.9683484485621244,-1.054053955231733,0.3161930551162384,0.0093177541998975,-0.0024961631167547,0.025594378257309,1.52919790561598e-05,-3.708375614159211e-06,-3.529955941569377e-06,11757,-0.247615,23.511346,0.637741
0.8216290169403051,-0.956569837981916,0.3109027967254729,0.0091724910934461,-0.0020792811653856,0.0264704618676774,1.8308556953395765e-05,-4.617250637653808e-06,-5.112013530112992e-06,11758,1.178896,26.799832,2.087559
0.8611056940824,-0.8399534107563184,0.3630605718527081,0.0087957425625268,-0.0017497034316804,0.0265859666787846,2.2042029125316694e-05,-5.682790002730206e-06,-6.50732878364212e-06,11759,2.504137,30.550142,3.117494
0.4630232980773568,-0.7947174226249185,0.4788944465031914,0.0081236812826424,-0.0016223833516172,0.0255472226678406,2.681165454909947e-05,-6.952697740600434e-06,-7.499069044621459e-06,11760,5.017598,34.184563,5.178381
-1.482969249351834,-0.7563822738647116,0.649159776648004,0.0070722258760145,-0.0018608318721593,0.022813585747989,3.214734351351424e-05,-8.33258007339534e-06,-8.259217444744058e-06,11761,5.610136,37.955195,4.742974
-4.101255014078598,0.0694561641938454,0.8600688064962676,0.0056113858459546,-0.0024763739156328,0.0181453090109292,3.694878464588255e-05,-9.57967095899481e-06,-8.988504875571735e-06,11762,4.30637,41.428992,1.505883
-5.165114192039184,2.27460882510299,1.0421162546779166,0.0037749152307191,-0.0033077576579555,0.0116453871071647,4.0116044469533504e-05,-1.043770341279293e-05,-9.775536845095197e-06,11763,3.814287,44.69638,-0.211748
-4.669317666294731,4.528396545961067,1.2201490048169292,0.0016192175887616,-0.004110253430399,0.0035036466586957,4.0811384694908e-05,-1.072860549266758e-05,-1.0780525158192622e-05,11764,5.778201,46.165043,3.133885
-4.1896639892998495,5.167912305036161,1.5176473189263542,-0.0007455277846765,-0.0044689542622022,-0.0058351441555589,3.851405747359504e-05,-1.0347746722958069e-05,-1.2075414773863297e-05,11765,9.184005,45.528882,8.789049
-3.992609584111059,4.608120873129339,1.801699403199457,-0.0032161867318412,-0.0042378831272719,-0.0159365778835319,3.345174211478169e-05,-9.305324828595662e-06,-1.3262083317148592e-05,11766,11.092947,42.569442,12.662458
-3.697152279991464,4.165526654871532,1.808210465230342,-0.00569111826168,-0.0035679241422331,-0.0263517077081437,2.686119410785305e-05,-7.80975073508206e-06,-1.3701111201594545e-05,11767,11.855799,38.442319,15.182734
-3.461671830303546,4.006680991775619,1.6413268080699688,-0.0080012549424878,-0.0026370838587147,-0.0362824136395012,2.023589133585097e-05,-6.170839484114375e-06,-1.3078698390192515e-05,11768,11.68165,33.86592,16.639165
-3.116789307217661,3.39477871348399,1.5371102944087802,-0.0099088593222606,-0.0017952883254866,-0.0445624477029305,1.4331849542770405e-05,-4.582219462754999e-06,-1.151306606796088e-05,11769,9.78504,28.67652,16.145135
-2.507140151468686,1.9565858717968525,1.3831832357042608,-0.0112877622356726,-0.0011915537750066,-0.0505726596633628,9.023993063506622e-06,-3.05521699159332e-06,-9.289338997438826e-06,11770,6.641323,22.873783,13.398129
-1.8795370669509155,0.2961029645860971,1.011048355116766,-0.0121244026432792,-0.0007413360359789,-0.0542395136002916,3.75140144563013e-06,-1.5103154240141328e-06,-6.695871895460859e-06,11771,3.392193,16.69432,9.589042
-1.1087301150428366,-0.6923985680912825,0.574802523144982,-0.0124316144752021,-0.0004214427098352,-0.0555776159081044,-2.0814065351507043e-06,1.303184123325312e-07,-4.019938963208357e-06,11772,0.822762,10.360656,6.048056
-0.2098144519654875,-1.0320462798990944,0.336437103979874,-0.0123069583802859,-0.0001631710922231,-0.0549717871602639,-8.889119124127423e-06,1.916657864182636e-06,-1.4361425829496694e-06,11773,-0.742916,3.93733,5.334865
0.3912276778619514,-1.2139234691496965,0.2865073208125704,-0.0118107602425376,6.508116703930219e-05,-0.0525426884205264,-1.6748296571249407e-05,3.864241244267069e-06,1.1454363894556364e-06,11774,-2.16412,-2.52237,6.839756
0.6064991778558517,-1.2576839059833946,0.1993575139304997,-0.0109679282753626,0.0002284117740151,-0.0481260868122542,-2.505936196748536e-05,5.856527031372902e-06,3.7610619691837992e-06,11775,-3.97328,-9.002885,8.1155
0.9255690312832792,-1.2778326602155476,0.0102498527946674,-0.0098876896001755,0.0003492326189511,-0.0418389561286102,-3.222729686136942e-05,7.5270149586509825e-06,5.894855688483152e-06,11776,-5.755606,-15.104249,9.089635
1.829154930361956,-1.6005633642274693,-0.1328803082852578,-0.0087498234490814,0.0004837309656073,-0.033956440723247,-3.65267445517384e-05,8.484448174838614e-06,6.982939084495877e-06,11777,-7.109481,-20.141506,9.162333
2.9226391895888573,-2.0435260393435786,-0.1665980739850107,-0.0076393396128342,0.000646334042592,-0.024851553081525,-3.781518451074844e-05,8.76429823302854e-06,7.390153327799034e-06,11778,-7.658948,-22.844241,8.5663
3.5331111179214627,-2.162672743207856,-0.2035785471602233,-0.0065547520173997,0.0008223374597214,-0.0151086192726851,-3.727870870931022e-05,8.71537064831458e-06,7.880001256355203e-06,11779,-7.627818,-22.801792,7.948486
3.463842825133842,-1.9968405487635137,-0.2174040562908645,-0.0054811289855647,0.0009867630158364,-0.005544801104096,-3.556710902566741e-05,8.468749064504533e-06,8.401406680667752e-06,11780,-6.183162,-19.989585,4.563958
2.59755829052414,-1.93694766668686,-0.1975840717202451,-0.0043434104635551,0.0010863641408194,0.0026994104551255,-3.26388485989294e-05,7.940401710924458e-06,8.478762323220092e-06,11781,-6.449305,-17.667349,2.340755
1.2464583514240095,-1.9566911913958276,-0.5008839738371926,-0.003140324337031,0.001102904758738,0.0090460316837196,-2.8804912524286844e-05,7.174487529693969e-06,8.189445194622746e-06,11782,-12.514059,-16.951327,12.315608
0.3413062707650978,-1.7010612729872054,-1.1286844066795103,-0.0019535819632769,0.0010557802442162,0.0135265609173966,-2.45778562429767e-05,6.29421235057812e-06,7.789298983304112e-06,11783,-8.296209,-13.077216,2.959894
0.0637653440380003,-1.2687491296847495,-1.5054726894463928,-0.0008486607253842,0.0009591674635989,0.016298727041266,-2.000357332609232e-05,5.286107565809777e-06,7.031484150574365e-06,11784,-6.601974,-11.378712,3.107107
-0.3181656312094046,-1.0361282034416477,-1.491598889166506,8.676129607104797e-05,0.0008399136816151,0.0179522515104809,-1.5253591499956125e-05,4.178914003046798e-06,5.7994995022510345e-06,11785,-6.324951,-7.179535,-1.431382
-0.6974242254658118,-0.9647038135816984,-1.420448283922942,0.000820882309901,0.0007090834362398,0.0187547380968741,-1.1337782547126108e-05,3.2664916374244283e-06,4.797681105340374e-06,11786,-6.922535,-5.614237,-1.422547
-0.6225227953618939,-0.8327089206166648,-1.3399157275306652,0.0013950684630511,0.0005568844584746,0.0186284013329578,-8.989561281998105e-06,2.7745637315395053e-06,4.640289073302974e-06,11787,-7.138625,-3.322488,-1.634092
-0.5086832051089223,-0.6919218299001758,-1.1800359699926006,0.0018643791168803,0.000379563751936,0.0178042376380457,-7.718986520997803e-06,2.5569914559732145e-06,4.9638345672494295e-06,11788,-7.001657,-1.567673,1.068091
-0.280445149080346,-0.608374436317687,-1.071915614297246,0.0023311145420026,0.0001703927567887,0.0166698040446083,-6.785315092093408e-06,2.381493131501495e-06,5.129954202911414e-06,11789,-7.043369,-0.384256,1.66984
0.4268573482890683,-0.5182803698991684,-1.01585271240092,0.0028406214071057,-7.188138741555069e-05,0.015459981834175,-5.916000361468088e-06,2.1807879126325783e-06,5.036097729068208e-06,11790,-7.201642,0.978897,-0.71323
1.0340815712178193,-0.4447599390650059,-0.939272297608079,0.0033731264467042,-0.0003396080999027,0.0143281852849641,-5.003689605834687e-06,1.961617357827393e-06,4.898863361086844e-06,11791,-7.083846,2.167763,-0.449449
1.129104022887939,-0.4196658721875889,-0.8860841868181515,0.0039221070173187,-0.0006268243346177,0.0134080553467013,-4.127675064955112e-06,1.7499474946928773e-06,4.790035655699913e-06,11792,-6.729158,2.89514,1.175733
1.0292438282090626,-0.414394221858565,-0.8282549982325543,0.0044638322618716,-0.0009256367161017,0.0127530529985298,-3.560449222587768e-06,1.5921279780158747e-06,4.597805402079476e-06,11793,-6.483539,3.774754,1.386869
0.9482567849529068,-0.4375143917887114,-0.7497940239878134,0.0049936081708055,-0.0012288953986515,0.0124447008685816,-3.2116833854632807e-06,1.465632212674725e-06,4.223796956098289e-06,11794,-6.157845,4.721092,1.429134
0.8432210941691679,-0.4576976117879213,-0.6899099948069365,0.0055342557849714,-0.0015311368602911,0.0125844606733417,-2.6008960471508275e-06,1.2783786758693713e-06,3.724614138032481e-06,11795,-5.800649,5.715938,1.865104
0.7546533840726062,-0.4244474304540737,-0.6317333556922817,0.0060952672254707,-0.0018239043429216,0.013187102170424,-1.542848340008762e-06,1.0018318497940638e-06,3.2747391302918643e-06,11796,-5.474282,6.816586,2.025512
0.7064786224369609,-0.3815830801199249,-0.561769575327224,0.0066838893657029,-0.0020962554750991,0.014186370971774,-2.404570037664092e-07,6.78858530898271e-07,2.949994061431811e-06,11797,-5.211817,8.03088,1.6264
0.640261993849154,-0.3443323398042179,-0.5044127926822215,0.0072961725336014,-0.0023328934794757,0.0155427144507322,1.2022166212833386e-06,3.2109021129061975e-07,2.6609688051400567e-06,11798,-4.845406,9.345279,1.56869
0.6214095144290879,-0.2889357305936312,-0.4639994222470284,0.0079096641707732,-0.0025122455198371,0.0172199548585941,2.812587643183458e-06,-8.450565918553163e-08,2.3163561772746e-06,11799,-4.376543,10.710552,1.708856
0.5881867503248364,-0.3152112784703006,-0.361738904873689,0.0084928577879005,-0.0026059398555378,0.019113564763411,4.501916317070931e-06,-5.217401768108077e-07,1.8843528915849243e-06,11800,-3.974863,12.157254,1.496711
0.4921293234336657,-0.5172543185976822,-0.1650502340259648,0.0089970540282389,-0.0025757581528871,0.0210544509544009,6.223114798097893e-06,-9.805429203542345e-07,1.360283155924516e-06,11801,-3.49536,13.624683,1.564454
0.7203415915847382,-0.79679038727345,-0.0034334197282573,0.0093934358209972,-0.0024095959841235,0.0229311850048178,8.1167092736286e-06,-1.484381022414815e-06,7.673693781003143e-07,11802,-2.931784,15.2158,1.583974
1.327696959755439,-0.9937648748687566,0.0410333240147946,0.009674624215394,-0.0021246679896176,0.0246812908487342,1.0250574688838674e-05,-2.0536430951957983e-06,7.916460493255159e-08,11803,-2.164162,16.912863,2.063364
1.689145227939956,-1.0554642678973736,0.0376307038520047,0.0098289983788372,-0.0017505512387559,0.0262230125658979,1.25692626732841e-05,-2.70557244808349e-06,-8.526918563993813e-07,11804,-1.492137,19.131435,2.120225
1.5319796235706795,-1.0002451931283838,0.0225219270876027,0.0098510430729626,-0.0013438973640234,0.0274818611540697,1.5139183798608203e-05,-3.4776336856058705e-06,-2.187715424805351e-06,11805,-0.868045,21.885215,2.547028
1.290603106832264,-0.8730916470929283,0.0197755580964464,0.0097150286233469,-0.0009716985021015,0.0282682252886284,1.8192544072592742e-05,-4.41156818366099e-06,-3.8720252826080125e-06,11806,0.791874,25.289071,4.284918
1.2962024547097148,-0.7688744295539186,0.1070202734831186,0.0093695518366036,-0.0007173443724645,0.0282490930426282,2.203853205697824e-05,-5.534056433441301e-06,-5.522747824141637e-06,11807,2.803534,29.033333,6.332982
1.0227988574110063,-0.7309909776390469,0.2668399633745022,0.0087548896780766,-0.0007110350025634,0.0269998136280639,2.689732860038912e-05,-6.845662495505508e-06,-6.699070623844031e-06,11808,4.492393,33.15128,7.419402
-0.3597936994936463,-0.5330184512144713,0.4915904934235188,0.0077909915699138,-0.0011389590332643,0.0239344034998453,3.2434271541089366e-05,-8.257949068179466e-06,-7.358119870575983e-06,11809,5.085302,37.132216,7.400553
-2.392811250758889,0.3790058701480657,0.8318750567608402,0.006444127475362,-0.0019999089148088,0.0188076171864406,3.735551012734939e-05,-9.50679960847346e-06,-7.85447207776171e-06,11810,4.033915,40.694001,5.285161
-3.5475039521353926,2.145148687829299,1.0978788505825174,0.0047339389677476,-0.0030821680249009,0.0117560553532403,3.99448193301374e-05,-1.0236870811486528e-05,-8.538479674929761e-06,11811,3.13598,43.737572,2.085296
-3.4248954127654976,3.737863148215042,1.097837805953711,0.0026962481180428,-0.0040633990631402,0.0030289246716996,3.926645146834435e-05,-1.02466097846022e-05,-9.546275090892877e-06,11812,4.935773,44.893336,5.252998
-3.0208060088001165,4.167112325144474,1.1027994134808292,0.0004092347380984,-0.0044040276105358,-0.006822581226368,3.552495587855437e-05,-9.563849740354466e-06,-1.079939169961466e-05,11813,9.493035,44.241145,11.727831
-2.9658793471329097,3.820819581837136,1.3461697343584862,-0.0020364160068847,-0.0039327904735011,-0.0173010597743275,2.9559559136352103e-05,-8.326260904555886e-06,-1.1913269811338637e-05,11814,13.114972,40.493505,17.921776
-3.071824390564351,3.45284554399717,1.551938226000905,-0.0045299486182281,-0.0028859399409466,-0.0279380573730211,2.2612972547306136e-05,-6.7390452560628855e-06,-1.2218878263702794e-05,11815,12.599656,36.248089,19.04509
-2.94979764772292,3.2594836174867843,1.512759413871338,-0.0068896427073099,-0.0015598572902865,-0.0378951182371581,1.6061488774064307e-05,-5.070353326936741e-06,-1.1246689684768342e-05,11816,11.25389,31.793532,18.207174
-2.419749057253429,3.151565279072176,1.38586011930912,-0.0088509358772924,-0.0005107396395308,-0.0459656845558289,1.0570443792691488e-05,-3.5128781588040084e-06,-9.227256742698632e-06,11817,9.210413,26.525992,16.488812
-1.806414380288378,2.5318447072789434,1.27144874385282,-0.0102776410266028,4.892552199827979e-05,-0.0515014872812654,5.548758352842572e-06,-2.0216631904512718e-06,-6.774657288858037e-06,11818,5.854305,20.526618,13.243444
-1.3787689097024698,0.9254190124107696,1.0639681918352872,-0.0111652724869521,0.000301538910235,-0.0544066936482125,-2.2461377701436786e-07,-3.777062590828861e-07,-4.16686663494166e-06,11819,2.657468,13.9862,9.203836
-0.8680096634732736,-0.7063771102877155,0.7483611042944971,-0.0115313758369188,0.0003822300016869,-0.0546919107599643,-7.365267794781523e-06,1.5325962390400108e-06,-1.3920372878518655e-06,11820,0.442745,7.290227,6.13675
-0.3762518388244999,-1.2091399289108071,0.5544013866883575,-0.011482717275825,0.000563511222177,-0.0527618480977415,-1.5484466689417857e-05,3.5938643344820744e-06,1.3925237264835617e-06,11821,-0.997055,0.770062,5.863492
-0.2734387476247774,-1.0190416231913524,0.5705283785686917,-0.0110765926885855,0.0009483753072042,-0.0488115562039442,-2.383260334952134e-05,5.624249088041331e-06,3.947236951059675e-06,11822,-2.61261,-5.661892,7.677676
0.1775340893933761,-0.9669897420459146,0.5719053513821866,-0.0103186193282913,0.0014178883160097,-0.0428232746037647,-3.1600754188146446e-05,7.45417192570744e-06,6.124467446350583e-06,11823,-4.651624,-11.918814,9.60211
1.8173704894107423,-1.053969474143909,0.4101494779678387,-0.0092955482336054,0.001919497563351,-0.0351422830399088,-3.757333859385845e-05,8.826277345651846e-06,7.699316432099833e-06,11824,-6.471088,-17.254774,9.523161
3.567421810351422,-1.2345198789455385,0.1789977962453317,-0.0081541020848068,0.0023709767481228,-0.0263902882529874,-4.068090575718938e-05,9.529545008128478e-06,8.522192823795716e-06,11825,-7.09638,-21.100338,7.629876
3.978842432513132,-1.528338162446357,0.0356087738224685,-0.0069728844459073,0.0027329622060911,-0.0170715172512244,-4.127114022849156e-05,9.69633815471461e-06,8.894249164522348e-06,11826,-7.865035,-22.278501,7.794719
3.5911750100055606,-1.6439091314920182,-0.0415552174288382,-0.0057752904562536,0.0030429358251399,-0.0076682226882882,-4.050623876946363e-05,9.613415008239489e-06,9.177593184521436e-06,11827,-7.905317,-21.211362,7.75724
3.201094446874362,-1.5481380949436023,-0.1852096835515828,-0.0045816404383272,0.0033081339388706,0.0011591717955892,-3.847252516683014e-05,9.260317387801892e-06,9.18405398725086e-06,11828,-7.329039,-18.736709,5.443039
2.4073727246048864,-1.455514990810213,-0.4264224518495673,-0.0033777665254265,0.0035349838134267,0.0085982893110547,-3.440652832441794e-05,8.421492229541303e-06,8.595455481533236e-06,11829,-8.964213,-16.198947,4.059924
1.4376263702988843,-1.2183030591835091,-0.645890916492393,-0.0021872489825434,0.0037301959377363,0.0142074822834384,-2.8467684983702985e-05,7.1315943584267484e-06,7.565898522614673e-06,11830,-9.948374,-15.6082,6.604092
0.6902109507724263,-0.7459973349834634,-0.6199228664733917,-0.0010764917223489,0.003888485006045,0.0179417259254739,-2.198306972520384e-05,5.682418267830518e-06,6.3360615045625615e-06,11831,-6.778487,-11.321145,-0.921437
-0.5623847854770775,-0.4475548600947962,-0.6488747165904887,-9.673967437324756e-05,0.0040160914250267,0.0199412776152695,-1.620762159666846e-05,4.332119037325921e-06,4.890834079696125e-06,11832,-4.89052,-8.292879,-6.226237
-2.2022381854438997,-0.504982846698927,-1.2432668944444822,0.0006967600460853,0.0041279420131686,0.0207381547877458,-1.1756103896638364e-05,3.2498567457304923e-06,3.502924418804047e-06,11833,-6.261976,-5.159491,-6.044847
-3.103474821358738,-0.5943708681773123,-1.7690570387811324,0.0012881656509118,0.0042283526394763,0.0206020926467373,-8.8973013229438e-06,2.5762056344247784e-06,2.837472151771665e-06,11834,-6.739666,-2.322673,-3.604105
-3.0409637762401864,-0.5256501714592645,-1.4168942508457216,0.0017145045555879,0.0043135005962292,0.0195496377039124,-7.309779401993045e-06,2.260054492541056e-06,3.0141110156059143e-06,11835,-6.195192,-0.347583,0.205536
-2.1574720167715595,-0.3397734581107929,-0.7783989921904195,0.0020390668101213,0.0043777677527442,0.0178798419366799,-6.021532960294728e-06,2.025613439225604e-06,3.379713645930003e-06,11836,-6.268486,1.236027,-0.407727
-0.662280006687236,-0.1291600967131527,-0.6176275819150127,0.002376288044953,0.0044090391117515,0.0160592442755018,-4.4111056479226245e-06,1.6969219838789132e-06,3.505493583472814e-06,11837,-6.967084,2.453361,-3.432281
0.4105772087391749,-0.0528910987828911,-0.6372465323623296,0.0027763367414771,0.0043998860682069,0.0143687113919296,-2.673004815534344e-06,1.3352639100916997e-06,3.5483830212878827e-06,11838,-7.329671,3.509065,-6.289593
0.5557712454637789,-0.1094649690830977,-0.5954767202375026,0.0032198388121561,0.0043477203332571,0.0129568175733079,-1.3020027674550193e-06,1.055123080824647e-06,3.616340903916538e-06,11839,-7.231758,4.483146,-4.620429
0.4842823856447347,-0.1396804251253043,-0.7091089337589217,0.0036949434638162,0.004245347636915,0.0119479817048427,-5.745345071931101e-07,8.907245040535002e-07,3.567389260274752e-06,11840,-6.512665,5.023227,-2.242108
0.4279959978374559,-0.1208196180196758,-0.8134397380450308,0.0041636404485102,0.0040831033116365,0.0113600278983613,-1.8928816858771042e-07,7.688193391075036e-07,3.3579341931695484e-06,11841,-6.571204,6.023703,-2.901191
0.2599289094825049,-0.1212044269214322,-0.782777793539271,0.0046174104575197,0.0038570393469735,0.0112583176383372,6.026181810608834e-07,5.475410780858961e-07,3.08791171435282e-06,11842,-6.51393,7.078549,-3.48507
0.3529560108898769,-0.1283342293218588,-0.7338860837299332,0.0050856636937049,0.0035685620849349,0.0117512039702093,2.2002770981770126e-06,1.5116300539503209e-07,2.7697083269835597e-06,11843,-6.343061,8.270461,-3.388323
0.6585783166675918,-0.0893798809966763,-0.6438599877919744,0.0055830104044732,0.0032224272225325,0.0128393035940259,4.154013251202412e-06,-3.3453319427235334e-07,2.3064252566065736e-06,11844,-6.142185,9.580939,-3.320253
0.7847945564937701,-0.066109580095142,-0.5597055289148157,0.0061254855652036,0.0028297141108329,0.0144310136086334,5.811687665524947e-06,-7.798774276925819e-07,1.649061012531457e-06,11845,-5.874698,11.018333,-3.490544
0.6852520145100204,-0.1707123808385527,-0.4744586491666002,0.0067102008152559,0.0024016481381891,0.0164479819986566,7.199455811813614e-06,-1.1914470041603425e-06,8.286740697491956e-07,11846,-5.463078,12.471846,-3.349781
0.6277578410675537,-0.3846346928948267,-0.348756768844508,0.0073060150016983,0.001950797604133,0.0187920197971156,8.790403564844691e-06,-1.6675610302272753e-06,-9.927042549114349e-08,11847,-4.902732,13.938035,-2.90923
1.07284939675996,-0.6577839549993687,-0.2447514510891444,0.0078714326322386,0.0014982895434956,0.0212745698660387,1.0836193505892288e-05,-2.254006834244823e-06,-1.0389870100599384e-06,11848,-4.212513,15.507844,-2.261142
1.8107374510464584,-0.9431720697303356,-0.0641820564915786,0.0083419775654608,0.0010746478229226,0.0236100914188046,1.3323903947598389e-05,-2.9446666958600865e-06,-1.9339320922172243e-06,11849,-3.423248,17.281679,-1.814175
2.12566891718217,-1.1182887899571092,0.2310938680423689,0.0086730610006256,0.0006926949217782,0.0255767995377885,1.612034915960626e-05,-3.7339922301455966e-06,-2.9717395261113656e-06,11850,-2.88295,19.540144,-2.027854
1.9676954090333112,-1.0725596274278364,0.3957185711230497,0.0088412472531225,0.0003466801033224,0.0270027462396431,1.899140896557923e-05,-4.613713724666587e-06,-4.513491287259644e-06,11851,-2.296051,22.300058,-1.746228
1.659782490833394,-0.9018041908985096,0.3612722117467716,0.0088104561948024,2.5194098521937763e-05,0.027660862229555,2.185297454778395e-05,-5.578470538821408e-06,-6.653047206534953e-06,11852,-1.084372,25.601559,-0.338632
1.63206605494502,-0.8498177470722537,0.3732915900265159,0.0085418373009502,-0.0002983348167303,0.0272956315207639,2.511451565413982e-05,-6.670233556443231e-06,-8.957673233992035e-06,11853,0.87378,29.267234,1.993758
1.7421116703769204,-0.7908078280071205,0.5311701051149811,0.0079945250341686,-0.0006490145541316,0.0256743891239815,2.9383662758527055e-05,-7.955900116466088e-06,-1.0852885038097063e-05,11854,4.159211,33.028537,5.435815
0.4145388157311424,-0.3585627820692263,0.7368332268459218,0.0071211522855452,-0.0010520968580688,0.0225758703159857,3.450413653545729e-05,-9.37388184159962e-06,-1.2180222740566844e-05,11855,6.495925,36.830435,7.540383
-2.5735558286939977,0.5752471178090033,0.9179604732658468,0.0058729696262218,-0.0015525590765929,0.0177776876652595,3.926865139294291e-05,-1.066113164581935e-05,-1.3128214564060492e-05,11856,6.032006,40.676785,6.408136
-4.58486260857412,2.1246400122900506,0.9851020867869892,0.0041976796282794,-0.0022158136166815,0.0110656655878449,4.2320758252463816e-05,-1.1514177228754625e-05,-1.3862441077911016e-05,11857,4.520493,44.057742,2.725054
-4.392778401282532,3.9989364084209895,0.9006075338913535,0.002092501716409,-0.0030169877559363,0.0024869550228341,4.286932168773997e-05,-1.1759302704236331e-05,-1.4593238533838072e-05,11858,6.44583,45.360838,6.124589
-3.754133491143816,5.1515532815892,0.8598205450195935,-0.0003858118402307,-0.0038289527428241,-0.0075957466007052,4.063747555794258e-05,-1.1356847710871135e-05,-1.5617677020429105e-05,11859,10.965942,44.651158,12.640133
-3.5806067531191705,5.084880038194044,1.059891486990069,-0.0031381496929712,-0.0044623259502064,-0.0185566882210993,3.590137984104366e-05,-1.0352639901313432e-05,-1.6742837802745395e-05,11860,13.448505,41.158134,17.4097
-3.322370660140229,4.52827721456298,1.3429673985796764,-0.0059931211385441,-0.0046134561231343,-0.0293468689401013,2.9605579216734517e-05,-8.86691339171908e-06,-1.702724478234145e-05,11861,12.482136,37.158371,17.84447
-3.0478441089203536,4.196272175590561,1.42235313583214,-0.0087975859979103,-0.0041893719786581,-0.0392687995653251,2.2857305267495288e-05,-7.0736654102276285e-06,-1.5697258124277126e-05,11862,11.359411,32.775254,17.564694
-2.786894258681876,4.026382312112336,1.3068669127611066,-0.011406952245318,-0.0033305561635648,-0.0479642636173812,1.615676658999431e-05,-5.12437706259631e-06,-1.298307739460037e-05,11863,9.56778,27.261639,17.297327
-2.199476935800997,3.402773256108766,1.15133001064676,-0.0135988634929763,-0.0022268367879179,-0.054859250948772,9.241240253153945e-06,-3.0638169440956155e-06,-9.588975705858744e-06,11864,6.521662,21.063198,15.790265
-1.3747588441768452,1.7169895699942628,0.9599796076179046,-0.0150760739588784,-0.0012324925008903,-0.0593283715210151,1.586528864415349e-06,-8.430986902755804e-07,-5.819003240421601e-06,11865,3.241551,14.325015,13.65985
-0.6663750500520302,-0.3777838040490737,0.745822547296153,-0.0157003423160052,-0.0004865822823004,-0.0609675078674871,-7.0431469506594285e-06,1.5548076631245247e-06,-1.7368785360502057e-06,11866,0.348018,7.278042,10.389387
-0.4279562632714634,-1.4752919409844676,0.5898548581706066,-0.0155001499679018,0.0001152079677399,-0.0595712884558739,-1.6370335600681828e-05,4.015980479144533e-06,2.2800103647285577e-06,11867,-1.618987,0.229381,9.104758
-0.2644921425728113,-1.5671587655816637,0.5300462695814575,-0.0145699233225003,0.0006492155732085,-0.0551466241852353,-2.563577087795197e-05,6.329787561550688e-06,5.754923567071813e-06,11868,-3.367372,-6.996029,9.947318
0.8977766763240367,-1.6218893773205438,0.5340019009716067,-0.0131562585401469,0.0012785295678972,-0.0480314108210687,-3.3664101652699375e-05,8.241385485373083e-06,8.446629271426867e-06,11869,-5.662296,-14.153349,11.6204
2.9617858839360123,-1.945225122726788,0.3648935746720884,-0.0114118364083386,0.00205088220978,-0.0386547870310327,-3.922675175377699e-05,9.51429915472142e-06,1.0216565138480043e-05,11870,-7.145959,-20.004425,10.505057
4.349736740399103,-2.2708642743769603,-0.0526815920033128,-0.009398513129225,0.0028648485942051,-0.027629587403483,-4.190137218703361e-05,1.0121716932184802e-05,1.1223386617720698e-05,11871,-7.135098,-22.924182,8.593838
4.366563410307522,-2.3496425451452967,-0.4156136232027666,-0.0072970707481456,0.0036521920670631,-0.016084150203995,-4.218399197000386e-05,1.0244852687993568e-05,1.1944718667526534e-05,11872,-7.920051,-22.76351,8.85228
4.034272334945651,-2.2210637485951903,-0.7367028998332776,-0.0053668278156258,0.0043124626890497,-0.0057598890172838,-4.05559228111615e-05,9.986442119015417e-06,1.2477116955217886e-05,11873,-7.537665,-20.372943,8.545083
3.61107615816325,-2.07311949251884,-1.2635011287212798,-0.0037427108962214,0.0047938654892358,0.0024640880489806,-3.7186123227866685e-05,9.323999563691936e-06,1.2469611912315362e-05,11874,-7.143618,-17.920616,5.664156
2.265131308794269,-1.808500397848697,-1.6220623364437188,-0.0024484320216158,0.0051162936991023,0.0085833352830683,-3.243976342445467e-05,8.308915388864341e-06,1.1792158786554944e-05,11875,-12.027826,-16.300966,11.242677
0.4490688869837513,-1.3645459381855116,-1.3894828880174472,-0.0014654740131132,0.0052838560752126,0.0126667974833062,-2.704963908470492e-05,7.1077493899216126e-06,1.0674328698140165e-05,11876,-8.338128,-12.891715,3.864429
-0.7873366355179858,-1.0628105536891628,-1.114032299762781,-0.0006709769603175,0.0053149979520488,0.0153022414767189,-2.1724879961856105e-05,5.876584232391802e-06,9.3166568587969e-06,11877,-5.568328,-10.395713,0.852936
-1.455895968851266,-1.0388211954736726,-1.2936446642098791,-9.079774146673145e-06,0.0052231235676799,0.0167555577487232,-1.6989889270837004e-05,4.743976697209011e-06,7.89678170101188e-06,11878,-6.165346,-6.706527,-2.829717
-1.7446410299127133,-1.0692964196708197,-1.501563645297891,0.0005114477150472,0.0050088793821723,0.0169346690383593,-1.342929660757824e-05,3.900515955638068e-06,6.933501914972679e-06,11879,-6.940925,-4.467314,0.29644
-1.665537799108422,-1.0044162234336578,-1.4409992876983737,0.0009615684426548,0.0046967229081489,0.0162070293876299,-1.126949037706129e-05,3.442119980872033e-06,6.833693866187548e-06,11880,-6.755079,-2.332604,3.259673
-1.4859971536867165,-0.8177804413191181,-1.3084960194586577,0.0014634100807848,0.0043313691713062,0.0152533731936415,-9.895156645568606e-06,3.1875799726636024e-06,7.152585648832263e-06,11881,-6.701526,-0.511435,2.640595
-1.0617856754209176,-0.5825920689479644,-1.157359733142499,0.0020660634021014,0.0039327938981348,0.0144086333972648,-8.521702889654367e-06,2.9003610907708884e-06,7.191324063467107e-06,11882,-6.909702,0.611052,2.496041
-0.1680090197978593,-0.4568197832133128,-0.9416511106019894,0.0027567356458465,0.0034995490386968,0.0137454213369917,-6.958596996314931e-06,2.5407304658780097e-06,6.893745432126429e-06,11883,-7.064706,2.224803,0.328154
0.5649124920329958,-0.4329496347398923,-0.7934359818891027,0.0035023600643425,0.0030283323566037,0.0133168792713385,-5.508220588246554e-06,2.1999900738356327e-06,6.53755691055582e-06,11884,-7.027085,3.145353,1.903352
0.774864827182373,-0.3865367236427415,-0.7549031870377817,0.0042143282622524,0.0025022746306201,0.0130021972597003,-4.45375634470869e-06,1.9415362570391927e-06,6.1803021686370325e-06,11885,-6.707528,3.933015,2.953985
0.8781110643616825,-0.3345708423838182,-0.704190339092679,0.0048617579817123,0.0019247752180403,0.0128039470802114,-3.7342640195880272e-06,1.7491666952855449e-06,5.763739312186093e-06,11886,-6.628415,4.795103,2.617399
0.917394981859088,-0.3206467588557748,-0.6547595258899048,0.0054750750035094,0.001322601670095,0.0128574884878188,-3.0141880087059524e-06,1.555307008521513e-06,5.309068735962844e-06,11887,-6.36208,5.658195,2.765529
0.820721144616624,-0.2939060703111813,-0.6209152855007637,0.0060627212035519,0.0007219997418549,0.0131601113468665,-2.007172937379658e-06,1.2953129956560793e-06,4.824893611273443e-06,11888,-6.025569,6.558616,3.295422
0.8485831087602473,-0.2576741918514028,-0.5443658332619674,0.0066397320180835,0.0001596061705902,0.0136262225972609,-7.484556103577903e-07,9.65120505393454e-07,4.24691326816386e-06,11889,-5.769533,7.578382,3.414843
0.9850409394127336,-0.2460431692036663,-0.4479831047999634,0.0072103979525815,-0.0003447207252679,0.0142586255327287,5.576238057036068e-07,6.062388970122507e-07,3.547643635119076e-06,11890,-5.47368,8.699793,3.438526
1.0014102006604324,-0.2575531613721561,-0.3452156412772303,0.0077586410629243,-0.0007916931544869,0.0151195221251677,1.865839628951792e-06,2.308788192826664e-07,2.7338996181263776e-06,11891,-4.977542,9.909235,3.86843
0.8706927461190443,-0.3381937805912087,-0.2415529547592472,0.0082759585353708,-0.001182018310801,0.0162776861910329,3.2842079221096573e-06,-1.9027724906096213e-07,1.7418507284702852e-06,11892,-4.445521,11.191452,4.109295
0.8981413621503083,-0.4885621660781213,-0.1522370396636081,0.0087538669667842,-0.0015259139188173,0.0178456028993526,4.92539640624607e-06,-6.779582135827375e-07,5.867219532123458e-07,11893,-3.881784,12.577531,4.282266
1.411040055652784,-0.6460252988074147,-0.027148978249332,0.0091738934909329,-0.001832291259682,0.0197962972265224,6.830510143185869e-06,-1.2160069967525685e-06,-5.086518517074417e-07,11894,-3.159575,14.054938,4.79944
2.0554282083123967,-0.81640396337857,0.1495912130450549,0.0095087949508705,-0.0021082839230845,0.0219399606113624,8.94927408992453e-06,-1.7845406372273832e-06,-1.4336164675064832e-06,11895,-2.346459,15.737603,5.205654
2.250956144863343,-0.9714694252948486,0.2630194208648153,0.0097187407509966,-0.0023744438380961,0.0240165840497882,1.1312498805329084e-05,-2.420875125337022e-06,-2.396309361460676e-06,11896,-1.761649,17.838954,5.043573
2.035662446851187,-0.9971666948997516,0.2592688661127651,0.0097460860761414,-0.0026646210881246,0.0256164651282361,1.408762370827427e-05,-3.1901214840763013e-06,-3.583953451610277e-06,11897,-1.215485,20.531683,5.076462
1.7645599546964963,-0.8675774200365743,0.2592787532450198,0.0095485466255976,-0.0029908392502897,0.0264461083141202,1.7339623794273598e-05,-4.098768110905174e-06,-4.909790015972342e-06,11898,-0.103695,23.656227,6.275563
1.7532191527441838,-0.7408265832940099,0.2880038679368399,0.0090981031797308,-0.0033432963357491,0.0263303366540134,2.109458204678505e-05,-5.130757757327914e-06,-6.206158146468541e-06,11899,2.168165,27.203698,8.566794
1.5399873384714964,-0.7279320682921082,0.3192286443518716,0.008359000983589,-0.0037066826621548,0.0250021613503713,2.550254292041718e-05,-6.304625861259906e-06,-7.376522450060951e-06,11900,3.707267,31.126664,9.443458
-0.1243976458152388,-0.5082901665531373,0.4999876555223564,0.0072948593791322,-0.0040488340971528,0.0221578891505131,3.042539655236017e-05,-7.577347436872553e-06,-8.351470416622567e-06,11901,4.786397,34.989496,9.925376
-2.7606794871145026,0.4523832439829763,0.8288533022311064,0.0059079859402606,-0.004343949243228,0.0176664830276819,3.499407596504177e-05,-8.749111186333503e-06,-9.15697797099012e-06,11902,5.215585,38.618014,9.585902
-4.09359803543175,2.093438122323556,1.0331435991864533,0.0042448767975483,-0.0045719327961156,0.0115751650583218,3.7923301357731896e-05,-9.537061746656118e-06,-9.933930418397735e-06,11903,4.339664,41.413815,6.43114
-3.719046172576488,3.585294007048538,0.9724790555245688,0.0023908627183861,-0.0046950437511454,0.0040741945035827,3.829340820045382e-05,-9.732693880210449e-06,-1.073153598748984e-05,11904,5.059993,43.050147,7.798162
-3.2336839039325738,4.260124730552159,0.8539042825017127,0.0004931676342756,-0.0046599908669429,-0.0044064849880426,3.589422081561171e-05,-9.27381548099063e-06,-1.1448195235299562e-05,11905,7.299213,43.086891,11.744198
-3.117951814472359,4.224106357368903,0.958390228119466,-0.0013650600323183,-0.0044439228325841,-0.0135038208518632,3.103221361203759e-05,-8.212934831867143e-06,-1.1895051177795526e-05,11906,10.284423,40.472594,17.429512
-2.8913534374723184,3.872055007152939,1.2395694171921527,-0.0031651956683898,-0.004054870064829,-0.0228874113468725,2.445336022450074e-05,-6.694264676215894e-06,-1.1729364640672726e-05,11907,10.38634,36.656212,18.787193
-2.678402270351972,3.56909899070314,1.3909869744972174,-0.0048693756207714,-0.0035126160726247,-0.0319766896806679,1.7272400290011875e-05,-4.9476008251521904e-06,-1.0636165369095856e-05,11908,9.591341,32.265074,18.820755
-2.5222719177124264,3.4437048018624554,1.2976911145881742,-0.0064521074078038,-0.0028648566123968,-0.0399529013375185,1.047633218358089e-05,-3.2153035447756557e-06,-8.745640034816851e-06,11909,8.693495,27.186322,18.424587
-2.128235086596878,2.896010409455465,1.1820442964997953,-0.0078693021194639,-0.002157373409674,-0.0462787947775807,4.368739028386477e-06,-1.6252931407780398e-06,-6.567553212511264e-06,11910,6.321316,21.443942,16.462632
-1.5874849251883136,1.3935848239245556,1.1149345288390111,-0.009048538982069,-0.0014376690201433,-0.0506767331829115,-1.4683072131222194e-06,-1.268726792214775e-07,-4.411596549749444e-06,11911,3.51495,15.115214,13.414119
-1.051468008370268,-0.3172775191825179,0.9249323691055108,-0.0099256015236171,-0.0007897664135268,-0.0528649230570333,-7.630356570698427e-06,1.4134688923020455e-06,-2.1716322820943723e-06,11912,1.046976,8.48255,9.70994
-0.4556883141565267,-1.1292757136874925,0.7106838795726612,-0.0104331743897764,-0.0003361063269552,-0.0526952023938486,-1.4260051023376077e-05,3.0301008010329503e-06,2.2019151811009937e-07,11913,-0.349419,2.016799,7.667708
0.065779120688425,-1.1458780031378537,0.6412191650435715,-0.0105339845471502,-8.816520091158258e-05,-0.0500902799255492,-2.101425716656964e-05,4.629853936532868e-06,2.590577654550671e-06,11914,-1.650341,-4.274212,8.456269
0.5663433052437923,-1.1509689949003428,0.6276495010742886,-0.0102304391214786,6.435106005718853e-05,-0.0450609365102132,-2.742185232816028e-05,6.108284652273115e-06,4.826872223975606e-06,11915,-3.5513,-10.436789,10.938816
1.6617969026413175,-1.3373797533360323,0.53445248804267,-0.0095458151496194,0.0002923660041733,-0.0378915514648644,-3.27324681630501e-05,7.316095026134509e-06,6.765120887964986e-06,11916,-5.775195,-15.976775,12.425791
3.1542985488510973,-1.4723683989179173,0.2737048008029848,-0.0085432180602194,0.0008895874781667,-0.0291959195109488,-3.600655097458114e-05,8.057272887259364e-06,8.095281759914104e-06,11917,-6.763193,-19.999503,10.645229
3.747007840381324,-1.467280325486085,-0.1494269676329045,-0.0072887456243477,0.0019346427420732,-0.0194932175453688,-3.718993665812844e-05,8.357762508923606e-06,8.946717274114085e-06,11918,-7.525006,-21.815729,10.497697
3.3956770845351016,-1.3738582989570027,-0.5071418214631197,-0.0058584081882726,0.0032671307713338,-0.0092785012001346,-3.702122425407797e-05,8.420785992616896e-06,9.687924493623398e-06,11919,-8.212686,-21.302247,11.192791
3.1186047333451525,-1.2709990095324444,-0.5553706735937234,-0.0043846804965271,0.0046867069162022,0.0006391356139833,-3.5515033749406306e-05,8.20656223045097e-06,9.976459135156476e-06,11920,-7.810591,-18.95724,9.656483
2.6699277403641464,-1.2628986260570731,-0.5077375554138926,-0.0030625877317545,0.0058360258256292,0.0091503567025164,-3.189403167135814e-05,7.459655685094768e-06,9.16174494211138e-06,11921,-7.852705,-16.669757,7.456148
1.874944576625055,-1.29880982377572,-0.5170076804291912,-0.0019904574401859,0.0065452724254979,0.0156531740361439,-2.604118660435809e-05,6.143151441133731e-06,7.364378605105954e-06,11922,-12.236959,-15.742402,12.625058
1.4676553599365771,-1.022143079014668,-0.3125670384975677,-0.0011682179676037,0.0068579163732653,0.0200594175672747,-1.921757681759293e-05,4.583748489810307e-06,5.2948075735706765e-06,11923,-7.057184,-11.697031,-0.583955
0.7902193447622435,-0.4864088973309401,-0.4373653327001113,-0.0005783013585859,0.0067709630883253,0.0224205765320393,-1.3126057888898918e-05,3.183326538271409e-06,3.430089046774333e-06,11924,-4.882691,-9.688651,-4.746427
-0.9484337154370992,-0.3136627667425936,-1.5552384968298,-0.0001351252986636,0.006334135192399,0.0231955852391212,-8.67577638765181e-06,2.1570211632893224e-06,2.037112147493203e-06,11925,-5.664469,-5.658994,-8.392735
-2.3726642416225334,-0.4840715486925456,-2.527128400404159,0.0002074446671672,0.0057363826613982,0.0226782295365154,-5.977965502016642e-06,1.583272878973611e-06,1.5934967192388012e-06,11926,-7.14771,-3.053527,-5.342208
-2.452664997866552,-0.4267859745701666,-2.137901060420537,0.0004543928355791,0.0053177326455373,0.0210131564806922,-4.649976994372386e-06,1.4029260450071488e-06,2.184734816845739e-06,11927,-6.842491,-0.931385,0.099523
-2.126541999826324,-0.2021086095431431,-1.1931516630762111,0.0006706698206142,0.0050851991043562,0.0187600259501897,-3.861670553512413e-06,1.350099530114591e-06,2.930872659891542e-06,11928,-6.258398,0.640547,0.964187
-1.8099218385848852,-0.1777569207110721,-0.7482878479977909,0.0009641142734021,0.0046836047215252,0.0168368821008703,-2.8299490883017525e-06,1.169685030035327e-06,3.068947102505969e-06,11929,-7.307457,2.014217,-3.424847
-0.9631903692909296,-0.2865101831281146,-0.5659666150354283,0.0013804586647739,0.0040840236618237,0.0156624309953943,-1.4003027512058327e-06,8.605620938213322e-07,2.8882701980939085e-06,11930,-7.990399,3.487155,-7.252332
0.0477784769737568,-0.3681556075524315,-0.3869530096706849,0.0019104971948429,0.0034925948948337,0.0151896602568062,-1.9047924670957002e-07,6.21048134852474e-07,2.9594157990250788e-06,11931,-7.729627,4.590194,-4.148107
0.5460255458047185,-0.3997335794356488,-0.3756139685322318,0.002529350042518,0.0029246312128373,0.0152912539701116,1.1505181412294517e-07,5.932988184529554e-07,3.288907669607429e-06,11932,-7.195962,5.112646,-1.979573
0.6170549462211472,-0.370618864291515,-0.426507499159657,0.0031660041021288,0.0023117009747314,0.0155105653537427,-1.5835847783271537e-07,6.693530445682503e-07,3.537882321572255e-06,11933,-7.315449,6.127084,-2.874853
0.5450926775435585,-0.3557819574759304,-0.4342330933278473,0.0037909139857216,0.0016611856589834,0.0157087461902166,1.8228535014211262e-08,6.2162803772514e-07,3.5314642547008026e-06,11934,-7.342909,7.035942,-3.356854
0.4783843379735544,-0.3877438711499952,-0.3883676867631354,0.0044182430505098,0.001004933514188,0.0160965449622413,9.828466216477546e-07,3.957658779441564e-07,3.3463247879833403e-06,11935,-7.063522,7.972739,-2.892678
0.4721156508649201,-0.3962437955530256,-0.2815988246999475,0.00503725150384,0.0003658214327724,0.016715390434731,2.1243733717538454e-06,1.2885034313735054e-07,3.0735003397111985e-06,11936,-6.776858,9.025,-2.710097
0.4569449455053214,-0.3493356984680671,-0.208736631671684,0.0056322771307573,-0.0002218626105649,0.0175956291580604,2.9457122751255207e-06,-7.992279228902737e-08,2.7243575688622447e-06,11937,-6.430317,10.167768,-2.573835
0.4205964232494108,-0.2995599930297937,-0.1521565384039218,0.0061920575930694,-0.0007388886451312,0.0187583284296446,3.573946515482283e-06,-2.556108093480772e-07,2.3436175036662502e-06,11938,-6.026848,11.397159,-2.131334
0.4720919376974585,-0.3889375250464303,-0.0733972363311283,0.0067023127510404,-0.0011845963608852,0.0201556482249298,4.296305418193241e-06,-4.524791903482826e-07,2.0042288412789213e-06,11939,-5.52228,12.780211,-1.662473
0.7683020468586172,-0.6364619538531096,-0.0016454954308205,0.0071543713297698,-0.0015570987844797,0.021775042348372,5.332538955699281e-06,-7.233684234778364e-07,1.6792014001162122e-06,11940,-4.988866,14.274909,-1.043079
1.3645516692297726,-0.8464970887962553,0.1088011010598653,0.0075457758288129,-0.0018617233111436,0.0236207550139527,6.89698571447171e-06,-1.127190459880933e-06,1.2454033892922993e-06,11941,-4.342331,15.936094,-0.504044
1.9638583029236096,-0.8987807088161488,0.2640165922309307,0.0078567891842369,-0.0021052079566949,0.0255832932983027,8.998420008687407e-06,-1.6697277160400266e-06,6.488547617634066e-07,11942,-3.776715,17.910342,-0.476274
2.179840056813825,-0.8617193283658728,0.3896652387525994,0.0080494010028352,-0.0022953557562991,0.0274329173966782,1.1422454128707126e-05,-2.307381146566786e-06,-1.0042810458235137e-07,11943,-3.360678,20.340671,-0.590403
1.9721947480001825,-0.7841771717074931,0.458980812408173,0.0080763068774789,-0.0024528611799743,0.0288419736969558,1.3979954280571382e-05,-3.0151758431267785e-06,-1.0936703906638e-06,11944,-2.686305,23.21135,0.166082
1.732260503517584,-0.6744446900578185,0.4678613702088031,0.007871593631751,-0.0026125532650326,0.0293217686566179,1.6605740897957773e-05,-3.792176941982312e-06,-2.4269802163595227e-06,11945,-1.395173,26.419487,1.568537
1.75935811302096,-0.6040671543248118,0.4436387574510619,0.0073906129768291,-0.0027882407693649,0.0285755452099494,1.9427267776611464e-05,-4.657729504782923e-06,-4.018859596679676e-06,11946,0.304842,29.965875,3.116349
1.265361977047837,-0.5631086185312644,0.5057210323743045,0.0066113177815193,-0.0029726988742164,0.026505777414705,2.2725843594789744e-05,-5.649644740460463e-06,-5.658610082998989e-06,11947,2.417852,33.530705,4.983243
-0.6536305732023299,-0.4021402860284772,0.6973450507564077,0.0055070903150608,-0.0031554243447367,0.022989169894771,2.651058052149592e-05,-6.7447641373408105e-06,-7.165437497712915e-06,11948,3.839674,37.05072,6.002815
-2.968620866711849,0.221689499353243,0.9639013850619742,0.0040576526233112,-0.003311806998379,0.0179746736705497,3.007378583864674e-05,-7.767730638489072e-06,-8.503624852472237e-06,11949,5.458846,39.975416,7.761284
-3.988190660018847,1.6177556161537685,1.2535193788734222,0.0022820465095644,-0.003426551847357,0.0115009776607841,3.224702612475597e-05,-8.443435484262113e-06,-9.693481028489709e-06,11950,5.443081,42.517675,6.273997
-3.86865727776744,3.255509657516269,1.3879476584718926,0.0002451394785654,-0.0034943601545237,0.0037069099655413,3.222646707050529e-05,-8.57986995172492e-06,-1.0663088218819486e-05,11951,6.485049,44.510591,8.008959
-3.641083279864888,4.090307520148353,1.2942768826847404,-0.0019391985092986,-0.0034984870141535,-0.0050627449747857,2.995651273237116e-05,-8.15798849547204e-06,-1.1298766237877536e-05,11952,9.26845,44.551063,12.684987
-3.4453577639954056,3.951307867258557,1.280999816322123,-0.0040839719635336,-0.0034149915762191,-0.0141981598503334,2.5910008275644724e-05,-7.274952017265995e-06,-1.1535708964536972e-05,11953,12.887073,41.273973,19.154059
-3.171929758704505,3.5520029520140075,1.4647887461441087,-0.0060820283616793,-0.003246246874436,-0.0232717201196717,2.089638111225412e-05,-6.100482291974369e-06,-1.1351406392141048e-05,11954,12.337246,37.749992,19.824108
-2.8730963223253334,3.3189521884633466,1.5280874722799285,-0.0079064666904088,-0.0030224826260477,-0.0320074317630788,1.5859852393709854e-05,-4.8435212719548815e-06,-1.07011827534088e-05,11955,10.822798,33.88374,18.988557
-2.463961136755374,3.1190780047376347,1.404853787103857,-0.009512793398236,-0.0027922585496595,-0.0399735854545614,1.136132118024498e-05,-3.638308093190992e-06,-9.519238711731288e-06,11956,8.999459,28.990162,18.032062
-2.0397410771416435,2.770695913811421,1.27486627629888,-0.0108786304135845,-0.0026371251885551,-0.0466592809919006,7.119324452473778e-06,-2.4419102549463107e-06,-7.854632612162172e-06,11957,6.483133,23.338659,15.998359
-1.7539848788680898,2.080125133602668,1.0633034561984207,-0.0119640359726522,-0.0025808776794443,-0.0516554312617422,2.2892792999027637e-06,-1.0962824014842318e-06,-5.844651209375387e-06,11958,3.727704,17.319448,13.519981
-1.590940332483132,0.9838821029287712,0.7378586614812332,-0.0127026395643735,-0.0025838841603116,-0.0546280373752128,-3.661413400058344e-06,4.892953534438961e-07,-3.512322734008956e-06,11959,1.375504,10.875803,11.103727
-1.2998221449480247,-0.1123393951005479,0.5130888258421755,-0.0130515692907659,-0.0025950100202872,-0.0552757752196722,-1.0465398843710678e-05,2.2339860598262e-06,-8.722187107094826e-07,11960,-0.36304,4.24445,9.963671
-0.3408788326105735,-0.8283194501639304,0.4401555916037298,-0.0129817290386745,-0.002520351132344,-0.0533776877896675,-1.7422849453530567e-05,3.957209734288096e-06,1.7783839819306664e-06,11961,-1.897576,-2.379543,11.099871
1.3278057893923896,-1.2982097978442757,0.38855195448328,-0.0124833342882326,-0.0023248049532555,-0.0489047910778361,-2.385064556393965e-05,5.483479020519937e-06,3.949618473488031e-06,11962,-3.94168,-9.208319,12.581582
2.8827068907153963,-1.7712442090175264,0.3429792677102607,-0.0115783584107279,-0.0020403848420385,-0.0420734458272481,-2.896123692727339e-05,6.643789509911392e-06,5.370840328978316e-06,11963,-5.756356,-15.320912,12.08773
3.6795255299913623,-2.1311790536543795,0.3135373085135424,-0.0103196168227106,-0.0016940817321426,-0.0333946170994182,-3.2049489801721017e-05,7.337540852653895e-06,6.260818945666978e-06,11964,-6.202507,-19.715512,9.784718
3.765300469818855,-2.139004959414838,0.158299836731638,-0.008805505549379,-0.0013395001196111,-0.0238010215525166,-3.3225632587517824e-05,7.65350992028093e-06,7.048937688447401e-06,11965,-6.944496,-21.542168,10.142276
3.4425209326230592,-1.9569873051939293,-0.1723320410738022,-0.0071286723175711,-0.0010052221122331,-0.0140093805940851,-3.306615170965113e-05,7.71978941458776e-06,7.75054183291507e-06,11966,-7.298743,-20.969889,10.613243
3.2028655585656844,-1.933169771430955,-0.3663602790536718,-0.0053841223732135,-0.0006876959992505,-0.0045705652894209,-3.1416876015618544e-05,7.450593531510002e-06,7.953844569805227e-06,11967,-6.766407,-18.774728,8.944431
3.102770493551734,-1.9772780246895376,-0.2252434740583284,-0.0037201630355049,-0.0004021450220224,0.0038515307417937,-2.776759607827934e-05,6.701534562499091e-06,7.450018573172246e-06,11968,-9.4736,-16.096352,10.533096
2.423789200505752,-1.6893762417704583,-0.1364077927829488,-0.0023401021894105,-0.0001690105471445,0.010604569511919,-2.2797767926296803e-05,5.623195029608803e-06,6.446025261275056e-06,11969,-8.520783,-14.028754,10.214631
1.0852712619226232,-1.1144373547205897,-0.4955282946201006,-0.0013361247030913,-9.351621192634114e-08,0.0153256843619744,-1.8108633938453527e-05,4.566765630768286e-06,5.196756205241965e-06,11970,-5.482723,-10.60701,4.15103
-0.1083344431315986,-0.7261730227211678,-1.1462979777424325,-0.000683410635945,9.656948345209154e-05,0.0179875949256644,-1.4461815415880243e-05,3.710625892931772e-06,3.938486742276399e-06,11971,-4.748155,-7.594947,-0.975547
-0.7647438998851104,-0.6255368245518464,-1.681800494328351,-0.0003154320072449,0.0001203272947667,0.0189112798168409,-1.1636921578252508e-05,3.066666918876061e-06,3.175089671053436e-06,11972,-5.834795,-5.418734,0.56402
-1.032445822618193,-0.5529454524126993,-1.879656439501796,-6.374526036337423e-05,8.135467261786479e-05,0.018951774827822,-9.579695784126994e-06,2.6740779279779737e-06,3.311907819561562e-06,11973,-6.308111,-3.210214,5.800925
-0.9964178605203758,-0.4538209886343234,-1.799594233745664,0.0001533471722022,-1.6079238810482138e-05,0.018510907920937,-8.278749059449527e-06,2.491639374101584e-06,3.99108989734071e-06,11974,-5.997221,-1.584669,5.903393
-0.7905817177274586,-0.3987921725717667,-1.6448890926841349,0.0003272169877926,-0.0001719393999862,0.0175628347427049,-7.044461795641141e-06,2.293575681764556e-06,4.465470689213109e-06,11975,-6.672886,0.128648,2.544014
-0.6224225780827166,-0.3653355587819746,-1.49742054954689,0.0005070620764423,-0.0003781979921862,0.0163456673655676,-5.230826719640073e-06,1.92172339168344e-06,4.477263124925199e-06,11976,-7.043149,1.51145,0.40008
-0.4222103764024684,-0.3208807931699482,-1.2684906766491149,0.0007582341562134,-0.0006208851483237,0.0151542941288106,-3.329699433580105e-06,1.5122063730849297e-06,4.299574021561983e-06,11977,-7.160747,2.7712,0.314976
-0.1932680527978002,-0.2637724677646135,-1.0310505183284218,0.0011163381200862,-0.0008929871222755,0.0141759436513861,-2.240210583992058e-06,1.2731592758323288e-06,4.150956280128166e-06,11978,-6.689907,3.592089,2.700407
-0.0939205669606745,-0.2141873387766049,-0.9630292227972383,0.0016001154634869,-0.0011933550010297,0.0135514211964786,-1.8484547720241184e-06,1.1721954274147586e-06,4.002862907692021e-06,11979,-6.47306,4.431005,2.789761
-0.0922355444772419,-0.2016341355610499,-0.9908700956189902,0.0022034320255606,-0.0015212128767088,0.0133112000971695,-1.330314990361167e-06,1.0354957210003815e-06,3.8247752192997465e-06,11980,-6.50284,5.433545,1.782653
-0.0858734043439753,-0.2066259693888863,-0.9450343735157256,0.002882100291472,-0.0018794488381167,0.0133296212127734,-3.6771892198935684e-07,8.020808524010679e-07,3.616680910637155e-06,11981,-6.395073,6.377244,1.881429
0.0044330362425496,-0.1874762803081577,-0.8088624679798397,0.0036143493692387,-0.0022619668719835,0.0135999339745492,7.108448190993528e-07,5.354832232053369e-07,3.328847246248282e-06,11982,-6.164742,7.401159,2.038595
0.1377048006105702,-0.1605069996921177,-0.6745367130378943,0.0043958145605055,-0.0026521394273647,0.0142154269061692,1.621596864804684e-06,2.901585042854932e-07,2.9331229085692345e-06,11983,-5.9366,8.530792,1.78983
0.2905725002651539,-0.1344645485231608,-0.5828091383629803,0.0051948008130095,-0.0030302042442791,0.0151856295268821,2.429189750911437e-06,5.1017716566236916e-08,2.417775030821363e-06,11984,-5.482127,9.66018,2.203224
0.5063310161565263,-0.0995782215971732,-0.4976671552317338,0.0059605760028707,-0.0033682088729567,0.0164855040399932,3.255352964107612e-06,-2.1327014277460786e-07,1.7665634363093998e-06,11985,-4.890975,10.803014,2.729029
0.774457407001042,-0.1740108631592548,-0.4547626363739191,0.006663769571617,-0.0036532494778158,0.0180987739336877,4.122975263016228e-06,-5.058031735091505e-07,1.033028393630246e-06,11986,-4.364549,12.081318,2.887454
1.3053308503315195,-0.4513889063131666,-0.440649259754387,0.0072920866253116,-0.0038896041824851,0.0199934715425843,5.182311771831649e-06,-8.413439259691462e-07,3.238918756320202e-07,11987,-3.736638,13.467102,3.324622
2.096656831498433,-0.7206429551322833,-0.2817526673494712,0.0078341447163342,-0.0040845784958071,0.022121802656435,6.676314580055541e-06,-1.26068256791051e-06,-3.28473252633774e-07,11988,-2.97132,15.015657,4.036252
2.627879038968785,-0.7736715357757555,0.0252560158409662,0.0082893220059631,-0.0042568545755346,0.0244177502422719,8.625360242786119e-06,-1.785775523548258e-06,-1.0484901611651596e-06,11989,-2.230687,17.073392,4.211889
2.6103237216051216,-0.7022358542515919,0.2302786153456391,0.0086260638069961,-0.0044253215975819,0.0266915595479826,1.0846984670941976e-05,-2.409101022337745e-06,-2.0305541117710225e-06,11990,-1.795505,19.737534,4.074724
2.244830909829383,-0.5958948815658651,0.2331847614056383,0.0087764533826373,-0.0046100315710348,0.0286017500243961,1.32540584942208e-05,-3.126430616409529e-06,-3.354664418237771e-06,11991,-1.186678,22.905045,4.715875
2.0949008791359334,-0.5420925477184023,0.2063687841306293,0.0086590560327854,-0.0048475771919993,0.0296660813082591,1.602712517199123e-05,-3.970774109519679e-06,-4.936926398999321e-06,11992,0.797905,26.448588,6.938805
2.174239394486269,-0.5228433396684631,0.2326711825435514,0.0081613472941454,-0.0051922856770123,0.0291851738422626,1.948755964748215e-05,-4.99374393854967e-06,-6.582126711492667e-06,11993,3.400579,30.11225,9.281618
1.0616371681907304,-0.1361556522443346,0.2103524470038867,0.0072294489957859,-0.0056623298517398,0.0268212855278677,2.371046582737184e-05,-6.1760138256296185e-06,-8.01295252851552e-06,11994,5.941417,33.735533,11.363209
-1.772216759730697,0.6575872492749094,0.2643496227453579,0.0058759742673934,-0.0062377445049687,0.0226275032817816,2.8181281833088348e-05,-7.363421009865542e-06,-9.008798827790566e-06,11995,6.629,37.428547,11.275201
-4.170110115984095,1.545661038513571,0.65508317611524,0.0041270731376512,-0.0068850491408616,0.0167223905902783,3.183223260002189e-05,-8.307958048303532e-06,-9.591785947398112e-06,11996,5.246338,40.474718,8.150156
-4.533529389580763,2.7087699869399287,1.1622515850238355,0.002054931497238,-0.0075377050007332,0.009484541901743,3.3507701422185975e-05,-8.776223806174716e-06,-9.979765197313769e-06,11997,5.429424,42.958836,7.574909
-4.021147783655709,3.980605008593839,1.3468322227638512,-0.0002658866051628,-0.0081274494163703,0.0012194731315183,3.253386036335649e-05,-8.642380739190595e-06,-1.0366543354256552e-05,11998,7.991366,43.780417,11.317148
-3.762849490269544,4.457833894214796,1.3118243876053453,-0.0027537870838107,-0.0085794413566043,-0.0078337442805087,2.904392654164586e-05,-7.930966892366943e-06,-1.076737743480742e-05,11999,11.935724,42.013438,17.79251
-3.521525959229993,4.057152895912343,1.3727715832585663,-0.0052592742284344,-0.0087715842803973,-0.0171315435704304,2.393054122643737e-05,-6.808418039772405e-06,-1.0980491296832408e-05,12000,13.134668,38.822115,20.489798
-3.247500247906765,3.646581894337903,1.4285230999126004,-0.0075590830173654,-0.0085299441376069,-0.0258451663465954,1.845292964904053e-05,-5.518524479297639e-06,-1.0691401550582946e-05,12001,12.62807,35.341841,21.034828
-3.060776715532244,3.4960966340074955,1.3329854228762783,-0.0095280820514499,-0.0078421973757702,-0.033484390703539,1.3621543917352094e-05,-4.2733996987424125e-06,-9.721140117210609e-06,12002,11.426309,31.293936,20.450109
-2.7967207276564467,3.081593787514803,1.218700545298243,-0.0111372632682713,-0.0068752819772837,-0.0398669276090768,9.583598918335514e-06,-3.1284883570909406e-06,-8.154480920713379e-06,12003,9.049814,26.441391,18.571255
-2.3839265701400336,1.9867615931375564,1.16173035596826,-0.0123635357525251,-0.0058886002905805,-0.0448096523068114,5.613256686151992e-06,-1.9611615937527098e-06,-6.178426752518959e-06,12004,5.926017,21.012261,15.523492
-1.7778838295188386,0.4880835267498373,1.0783040975660796,-0.0132393651496642,-0.0053252328457772,-0.0482926480369683,8.747991834558939e-07,-6.200786040075952e-07,-3.918000301088069e-06,12005,2.900589,15.028925,11.834238
-0.9793541046372928,-0.5939796912178128,0.9448021101853096,-0.0137582830338631,-0.0053242919655413,-0.0501714288669471,-4.923466395002234e-06,9.302095810163116e-07,-1.4810524491855335e-06,12006,0.848578,8.942836,9.502903
-0.2970184703070441,-0.9597907965563164,0.8299103972340796,-0.0138697811931305,-0.0056891208674349,-0.0501563609919755,-1.1516167575946944e-05,2.6094431516933764e-06,9.887045026014245e-07,12007,-0.738146,2.81781,10.275305
0.1918223436220874,-1.0442853084375732,0.7529580605259645,-0.0135688764717522,-0.0061796833645497,-0.0480878363807975,-1.839211906516637e-05,4.299514803253248e-06,3.389150350835037e-06,12008,-2.455298,-3.354057,12.137281
1.129631277250511,-1.1697698759092527,0.6521888792803111,-0.0128777596849456,-0.0063482735616609,-0.0438762793330985,-2.4876712561062025e-05,5.85273130375794e-06,5.605952809942688e-06,12009,-4.427673,-9.429045,12.667098
2.621278329112595,-1.4244099552316178,0.4967502128850131,-0.0118336327044863,-0.0060286894791699,-0.0376332098206853,-2.9907019662188832e-05,7.024856243656479e-06,7.299975814357063e-06,12010,-6.157694,-14.927001,12.277721
3.5212610991182207,-1.7254062159802386,0.3742351627911959,-0.010507123123865,-0.005380064645744,-0.0297567948355035,-3.2547839322651486e-05,7.615413542405964e-06,8.186079638299006e-06,12011,-7.19886,-19.335762,11.23791
3.2740163342410966,-1.8063217801340712,0.2917780687654524,-0.0090081656345491,-0.0045285404489306,-0.0208975718952724,-3.30860488439096e-05,7.739672911776083e-06,8.53999728462589e-06,12012,-7.649135,-21.468761,11.00375
2.9145059782270795,-1.6808302179418346,0.0858406916918515,-0.007500395873866,-0.0037192806042401,-0.0120955920025022,-3.247539220265595e-05,7.647370588424703e-06,8.72928125070735e-06,12013,-7.736636,-21.295197,10.778333
2.8933106760772294,-1.6186901499908155,-0.1707158062329296,-0.0060799452320903,-0.0030740535847839,-0.003980029921684,-3.070238705015273e-05,7.301928790253386e-06,8.513459533967788e-06,12014,-6.322721,-19.10635,7.212674
2.1611567234477262,-1.616177634283672,-0.2651656917261568,-0.0047731774743817,-0.0025531562420022,0.0032372524030757,-2.7088410639285276e-05,6.514361679459013e-06,7.613683181601029e-06,12015,-7.336731,-16.541437,5.654312
0.6984922191501725,-1.5104339995356506,-0.2079857730163876,-0.0036100818211878,-0.002193896195371,0.0092321130272364,-2.195055582243111e-05,5.377698179019408e-06,6.418017365604918e-06,12016,-9.338441,-15.59988,9.683351
-0.1780266615613948,-1.3543468520799955,-0.1583637507869255,-0.0025893173857998,-0.0020420921500266,0.0137735192376504,-1.6720712868843704e-05,4.228849477688456e-06,5.386788882905378e-06,12017,-6.301029,-11.737581,2.315186
-0.2223038808863338,-1.261710436336133,-0.5643226707569841,-0.0017195092257009,-0.0021080060875835,0.0167530705185395,-1.2435898646566808e-05,3.2687818521796444e-06,4.430455369577141e-06,12018,-4.636467,-8.756498,-3.555826
-0.2411605137286638,-1.2047583415944758,-1.5635102337769882,-0.0010220462136243,-0.0023869198898493,0.0181756650674905,-9.159567065022095e-06,2.513135195208457e-06,3.526521239980009e-06,12019,-5.845262,-6.138385,-3.510078
-0.388481059583803,-1.138451562089606,-2.2597150116286464,-0.0004782972172521,-0.0028237003364435,0.0183480988272896,-6.934369256999557e-06,2.0343879756491174e-06,3.1877315776590997e-06,12020,-7.006707,-3.771108,-0.006782
-0.3460801627944808,-1.018192480379531,-2.0470497773770813,-3.308351140202462e-05,-0.0032978569252558,0.0179556797167043,-5.864897284279846e-06,1.87965880078932e-06,3.618199410692564e-06,12021,-6.231818,-2.338604,3.571091
-0.2688186286913231,-0.7550000275063056,-1.5706754638229006,0.0003446035462872,-0.0037618195282163,0.017331617607698,-5.3222535006645085e-06,1.8481673304487416e-06,4.2006422194506e-06,12022,-6.462245,-0.920029,1.659428
-0.2293182171724992,-0.4438516819660993,-1.3557512823712088,0.0006701723536506,-0.004237361056087,0.0164871648239933,-4.453663965132627e-06,1.702248418416955e-06,4.425577666959017e-06,12023,-7.101562,0.10852,-1.232104
-0.0531820849068243,-0.3125787273242955,-1.1567768723765508,0.0009771968942404,-0.0047355059333582,0.015565325284451,-3.2383029594183587e-06,1.4599882055699931e-06,4.496566416271274e-06,12024,-7.410414,1.055226,-2.982617
0.1510107256283239,-0.3383545070653588,-0.9701957557208316,0.0013083701375571,-0.0052916056039871,0.014677691940525,-2.3020461353473287e-06,1.279025664903786e-06,4.633717216859976e-06,12025,-7.366055,1.862096,-0.745006
0.2443116459820026,-0.339121043363209,-0.9698293077986364,0.0016891319814315,-0.0059112412468519,0.0139302788610826,-1.9244294981123824e-06,1.1970625804025422e-06,4.6279899862129164e-06,12026,-6.947869,2.385116,1.237895
0.1999802612173369,-0.2998855472680612,-0.982003534088602,0.002129283142736,-0.0065611841532789,0.0134613299974706,-1.617027981959243e-06,1.097942442184023e-06,4.338986955738242e-06,12027,-7.066003,3.465881,-0.243196
0.0562462022749166,-0.2822192198932995,-0.957471546422504,0.0026296911807301,-0.0072204140153597,0.0133089027991614,-7.580077179517795e-07,8.697296057088942e-07,3.943252466850744e-06,12028,-6.965055,4.427111,-0.315931
0.0158163381218361,-0.2604981428341912,-0.9344732586476124,0.0031732634682207,-0.0078635197024483,0.0134110942904817,6.388020668921912e-07,5.313767972954101e-07,3.5812748497874726e-06,12029,-6.7403,5.456808,0.076199
0.2378736254523896,-0.2244188851726186,-0.8353109747860017,0.0037523301492463,-0.0084724932497276,0.0137778365899291,2.0643176032093517e-06,1.8853070331517457e-07,3.228939746618772e-06,12030,-6.560582,6.575991,0.018883
0.5272792837708178,-0.1939782807331006,-0.7195144371392785,0.0043672384598817,-0.0090429503602756,0.0144683654351752,3.227079494474301e-06,-1.0567927410120388e-07,2.8692457622804223e-06,12031,-6.369091,7.725151,-0.1065
0.6357618827001861,-0.1844525144467579,-0.6463943170667039,0.0050030288717372,-0.009566299108253,0.0154944230659637,4.252338525042546e-06,-3.793646592280844e-07,2.52878986840033e-06,12032,-6.054819,8.923366,-0.102971
0.6175618127518294,-0.2436489495331636,-0.5522523173764059,0.0056329185200812,-0.010035022782542,0.0168472446118019,5.289667957601217e-06,-6.577667054471814e-07,2.1992786903139268e-06,12033,-5.656143,10.147941,0.037981
0.6173586075204548,-0.3598301815114413,-0.4304554645719813,0.0062389529362694,-0.0104411441262156,0.0185071816489975,6.348299184382707e-06,-9.449606609889784e-07,1.811727927730204e-06,12034,-5.190473,11.396463,0.279644
0.9076591180747964,-0.5039414012646386,-0.3121293351338566,0.0068088649382966,-0.0107743360954445,0.0204276201952458,7.533004585511635e-06,-1.2741314586581795e-06,1.3163868894761365e-06,12035,-4.607179,12.742304,0.653738
1.6638386181907456,-0.727719363261609,-0.071433285012394,0.0073262216612438,-0.0110273152793082,0.0225360229185213,9.124428866033838e-06,-1.7103249976169122e-06,7.017211588099565e-07,12036,-3.884575,14.27125,1.039776
2.4894878176535924,-1.017144099457631,0.3197586007723053,0.0077739044973246,-0.0111952148945618,0.0247233460975647,1.1236879765025276e-05,-2.284497965223826e-06,-1.2679946503953845e-07,12037,-3.011402,16.12038,1.510992
2.755523634973328,-1.1512368870507237,0.5692663552170196,0.0081108446893881,-0.0112761014955443,0.0267796232972587,1.3546221559168133e-05,-2.949205889278128e-06,-1.3451451930258972e-06,12038,-2.200065,18.479925,1.694278
2.3815511181916307,-0.9968745624720892,0.5583267056867416,0.0082661363696004,-0.0112726965360312,0.0283665136609493,1.5727859601410882e-05,-3.6532643593449536e-06,-2.9869075821015083e-06,12039,-1.264301,21.47019,2.291371
2.200342402119204,-0.8875204543075838,0.4890731029709974,0.0081463982506139,-0.0111929933469553,0.0290028463700832,1.813249784856598e-05,-4.444902486813536e-06,-4.745771835013469e-06,12040,0.291428,24.848933,4.11454
2.295339575326768,-0.8863270878922616,0.5267717048482692,0.0076210929552462,-0.0110524704459794,0.027999640838858,2.148217460616335e-05,-5.424412541017704e-06,-6.207971699370385e-06,12041,2.794082,28.464177,6.756759
1.0069017062626764,-0.392629700172403,0.7892064844768583,0.0066279050933762,-0.0108571582794062,0.0250282414450232,2.577426801756175e-05,-6.576916668494514e-06,-7.324374098615588e-06,12042,5.475704,32.179159,9.358936
-1.9215466679929216,0.7210520307056822,1.2129560130558388,0.0051796284404512,-0.0106033313086657,0.0201485486427982,2.992588462331969e-05,-7.687126799827226e-06,-8.333156953667055e-06,12043,5.953978,36.064684,9.087062
-4.154354646515111,2.040149013326224,1.4103914238190978,0.0033056953790379,-0.0102877919200903,0.0134995476957101,3.260163632467736e-05,-8.458932195068517e-06,-9.33462656827107e-06,12044,4.23466,39.58036,5.298007
-4.503287370057062,3.308832502748236,1.250329653732424,0.0010894542748685,-0.0099030047402437,0.0054936437440377,3.304207290277271e-05,-8.706642015646246e-06,-1.0300970688496172e-05,12045,4.802623,41.246828,6.324136
-4.1793756711446495,4.153677904818071,1.0629936900807295,-0.001388683680276,-0.0094489933425484,-0.0035104781632586,3.105689934759785e-05,-8.389379738256841e-06,-1.12395412707582e-05,12046,9.945667,41.082135,13.179823
-3.989867892853928,4.207718782467586,1.0028879480757005,-0.0040465018178059,-0.0089350017659236,-0.0131927443222754,2.693519703644844e-05,-7.560725403723576e-06,-1.1981015855598036e-05,12047,12.918099,38.188,18.856055
-3.690037757738792,3.774474676400732,0.9863927493652282,-0.0067280793606104,-0.0083706491662587,-0.0228946557924644,2.1732042322592616e-05,-6.397816310359767e-06,-1.2046085117339471e-05,12048,12.652466,35.213832,19.660694
-3.3104118994689102,3.4897622631635623,1.024541619245766,-0.0092002474125364,-0.0077701746501761,-0.0316248814668212,1.682862102006679e-05,-5.159187083559659e-06,-1.110292447911837e-05,12049,11.258174,31.585246,18.530941
-2.8736874326370447,3.366968851764957,1.11515886407701,-0.0113177716615646,-0.0071432018654899,-0.0388217359650907,1.2671959899032582e-05,-3.972340303113332e-06,-9.358731004137858e-06,12050,9.286283,27.076105,17.022195
-2.317085388390564,2.8175680320195293,1.2174304514624177,-0.0130173782508432,-0.00649381014864,-0.044330537298103,8.462815488219539e-06,-2.7288089639651488e-06,-7.207537873213429e-06,12051,6.673373,21.780303,15.399012
-1.89111695422393,1.5114180465117228,1.28111896206066,-0.0142287338216142,-0.0058286059567683,-0.0480223115188452,3.3555706503471943e-06,-1.283131861507182e-06,-4.812414226593787e-06,12052,3.852389,16.031535,13.581918
-1.514590513256999,-0.0499644882766918,1.194129609719203,-0.0149172491856606,-0.0051542522706918,-0.0500075324228884,-2.6169662636561573e-06,3.388710346834398e-07,-2.219320263325434e-06,12053,1.578724,10.044354,12.000348
-0.7352861752665494,-1.0591423644762106,0.9662629753530004,-0.0150676805287128,-0.0044826299084341,-0.0502387494350725,-8.942104713071537e-06,2.0016758595902096e-06,4.513198851635797e-07,12054,-0.338585,4.032272,11.594662
0.3131050371255746,-1.3917000618243038,0.7766818130510762,-0.0146868753306841,-0.003832766854086,-0.0484919034979561,-1.5137750875046484e-05,3.578033305634756e-06,2.9994191335127043e-06,12055,-2.18453,-2.072436,12.14593
1.0709289174540988,-1.4291756096495294,0.7160179555080779,-0.0138573135928874,-0.0032277926086312,-0.0447481163296464,-2.0670300034312733e-05,4.940751888423338e-06,5.164241272905804e-06,12056,-3.988133,-8.004922,12.235853
1.7707122388645415,-1.5213383578066004,0.6688013913865831,-0.0127518917528945,-0.0026982824192974,-0.0391212246041218,-2.4791310485194348e-05,5.918529421276533e-06,6.630441761268455e-06,12057,-5.543488,-13.458652,11.446784
2.7846894993044398,-1.8322418497256423,0.5874369147647276,-0.0114723214857436,-0.0022610381002181,-0.0318574771190677,-2.6789544359796006e-05,6.357349695261013e-06,7.214541170532138e-06,12058,-6.514917,-17.795265,9.477826
3.400495084158628,-2.0966639080028875,0.571482298658772,-0.0100596501402141,-0.001917502442013,-0.0234315345206212,-2.6772923233425304e-05,6.327074446327488e-06,7.233679965671129e-06,12059,-6.329659,-20.19422,7.049768
3.285661417987966,-2.063023755157016,0.4097744789960186,-0.0085976502902616,-0.0016658699958668,-0.0145730742896732,-2.5687623483387057e-05,6.101431777601828e-06,7.263785483168265e-06,12060,-6.461528,-20.481263,6.42376
2.966823236652783,-1.9219569711198337,-0.225414394529033,-0.0071816953787326,-0.0014935077891455,-0.0063717912468474,-2.411145198346565e-05,5.8134454706215e-06,7.392779498905813e-06,12061,-5.591446,-19.127995,4.923471
2.255228795908253,-1.760470772985582,-0.9927025150480556,-0.0058766416202916,-0.0013883955284667,0.0005846933436468,-2.181548099181937e-05,5.373944100054976e-06,7.342015494255071e-06,12062,-5.380328,-16.939702,1.905996
1.1342061196991131,-1.4354002486015058,-1.2927504602406366,-0.0047233564118304,-0.0013382206116493,0.0062363261918068,-1.866764872504356e-05,4.742150694606492e-06,7.097621957759182e-06,12063,-9.083499,-15.52327,7.095243
0.4507820671474721,-1.009743451323931,-1.2168046012808238,-0.0037359167043154,-0.0013158435285464,0.0105438115693833,-1.5217158894946026e-05,4.042004676983823e-06,6.802125601785591e-06,12064,-7.33777,-12.707433,4.593156
0.2579868743610297,-0.6748844425884469,-1.2074646752641536,-0.002886013480716,-0.0012786099700618,0.0137523249649277,-1.2131411136442392e-05,3.399377251424802e-06,6.394493358278557e-06,12065,-4.836149,-10.028908,-0.229331
-0.0222654895000682,-0.5018357128663125,-1.3457963371804385,-0.002166387803582,-0.0012071799591604,0.0159589845281775,-9.61447295539971e-06,2.8497457698455395e-06,5.874004031549616e-06,12066,-5.259078,-7.498334,-3.270223
-0.3542688613184709,-0.4419191565346802,-1.492183713771264,-0.0015852965407112,-0.0011054641145028,0.017091446282314,-7.818700006076774e-06,2.4702787783361994e-06,5.642746623225647e-06,12067,-6.210102,-5.70342,-0.45416
-0.4936171339683103,-0.381088069209581,-1.547152912370657,-0.001116019623766,-0.0009813699232924,0.0173648740087776,-6.974734134809455e-06,2.3483449382116543e-06,5.977616999236588e-06,12068,-6.47603,-3.764202,1.493747
-0.5618123249042234,-0.263634786534672,-1.4711096713439649,-0.0007039847129582,-0.0008588284641923,0.0172174926120732,-6.70706455063403e-06,2.366281024151237e-06,6.480610849592324e-06,12069,-6.061193,-2.345885,1.994372
-0.5868751473731806,-0.1723945695482609,-1.3237136497119066,-0.0003226080248174,-0.0007508883729961,0.016874149599007,-6.255980788312759e-06,2.309924100330068e-06,6.673339274269095e-06,12070,-6.427757,-0.978252,0.864579
-0.3026613263742159,-0.1635485195444923,-1.1193415251411976,3.2095268296370143e-05,-0.0006589841922634,0.016399225535898,-5.439492525863342e-06,2.147814168602105e-06,6.628587280264917e-06,12071,-6.6245,0.220246,-0.437486
0.2865990214692712,-0.1678661693901842,-0.8496892343308959,0.0003674944983301,-0.0005971761525212,0.0158888980062352,-4.714199629290316e-06,2.009763610645933e-06,6.636499790843813e-06,12072,-6.748906,1.304327,-1.098176
0.7265526863359087,-0.1469348090220576,-0.6812209808404519,0.0006816124542795,-0.0005871665232918,0.0153784588951251,-4.533760964486008e-06,1.99837271587619e-06,6.767755322716687e-06,12073,-6.577204,2.107051,0.367491
0.6974775782351573,-0.1317911920148014,-0.6916398124850746,0.0009832052551168,-0.0006378817341428,0.0149481613486383,-4.924602501964119e-06,2.1088748014446853e-06,6.96403473679558e-06,12074,-6.323506,2.812759,1.187441
0.4770261579768296,-0.1215412346082744,-0.727738330078812,0.0012943521775878,-0.000747066762812,0.0147369989766,-5.496405060901895e-06,2.256409663862004e-06,7.20535016724291e-06,12075,-6.347396,3.733062,0.533242
0.4071615363489198,-0.1028705687000821,-0.6920489903214613,0.0016319330032464,-0.0009073348753299,0.0148239208789493,-5.807283698364119e-06,2.343172155772216e-06,7.399447555240477e-06,12076,-6.135097,4.656274,0.764538
0.4234013382424002,-0.0879266207767774,-0.6047393192498802,0.0020132329518917,-0.0010998398936461,0.0152493691849818,-5.773351062898835e-06,2.335689721213505e-06,7.370302090905278e-06,12077,-5.966517,5.705346,0.732919
0.4174752681735246,-0.0714302565065887,-0.5001537662855469,0.0024524388153927,-0.0013114291115366,0.0160264897397343,-5.60216081409316e-06,2.271258678207273e-06,7.080032597476511e-06,12078,-5.741324,6.850377,0.717756
0.3784685413786614,-0.050448468608587,-0.3953885468747967,0.0029580120735492,-0.001533893924248,0.0171139806698068,-5.350900076885404e-06,2.1698986396521934e-06,6.630229811598121e-06,12079,-5.376449,8.114231,1.003264
0.3302940286179344,-0.041662018325051,-0.2938628422425494,0.0035378562358863,-0.0017488906868412,0.0184066130435272,-4.970693491341845e-06,2.0257704361084453e-06,6.084426346673336e-06,12080,-5.00996,9.442243,1.346075
0.2874648393761259,5.4007887686930594e-05,-0.2000447470511915,0.0041969559248622,-0.0019300488883804,0.0197105617177753,-4.669640682164579e-06,1.8792321236519768e-06,5.433233220192538e-06,12081,-4.581677,10.884219,1.579817
0.2058838323464683,0.0074064230303428,-0.0984091851213918,0.004940095630823,-0.0020583068894176,0.0209283592232488,-4.626029777916948e-06,1.7679298907478543e-06,4.6825714033449885e-06,12082,-4.05966,12.439658,1.916637
0.1349746991989721,-0.2583596780254139,0.0219648938491712,0.0057717964430996,-0.0021201275103128,0.0220593024518712,-4.55522175003216e-06,1.644599591747007e-06,3.918619987076012e-06,12083,-3.661663,14.166647,2.005541
0.0968698763046321,-0.7079415159233047,0.1192336692356402,0.0066919882574608,-0.0021003426915011,0.0230816762894665,-4.060497439871957e-06,1.4375059691652637e-06,3.207056109996305e-06,12084,-3.142258,16.069525,2.525282
0.0639586394999238,-0.930509016506008,0.1790528045467926,0.0076956801599554,-0.0019853359132095,0.0240009710233961,-3.178701936435676e-06,1.1452867176084588e-06,2.4879553585864405e-06,12085,-1.843611,18.043653,4.117716
0.0520322147371039,-0.8152623865358914,0.2088278139311252,0.0087689349685372,-0.0017474476132576,0.0247059227217356,-2.2447517400915587e-06,8.127376087364576e-07,1.6155065982678962e-06,12086,-1.835797,20.778685,2.893522
-0.070140047446934,-0.6796702609513812,0.1844577459086231,0.0098855617411506,-0.0013418012173168,0.0249386736095093,-1.4065166599334748e-06,4.436039469462724e-07,4.027570366482757e-07,12087,-1.537954,24.063712,2.155937
-0.207203242734843,-0.7217790237659003,0.2624882102999024,0.0110050047602885,-0.000713033928582,0.0243793512404602,-4.833173523423664e-07,-1.2259334966805376e-08,-1.2439162811613364e-06,12088,0.326064,27.080813,4.088968
-0.4006596416044441,-0.4366034004169459,0.5419282753372041,0.0120662439542033,0.0002130970471527,0.0225765177038555,8.662702625567692e-07,-6.07947127477782e-07,-3.152767907420302e-06,12089,3.290938,30.076427,6.87993
-1.5498403372932894,0.7512680524138367,0.6648052422994238,0.0130316880940621,0.0014337345163184,0.0193200455958538,2.9465907480589143e-06,-1.3652790659788978e-06,-4.969765265174523e-06,12090,5.457385,32.946247,8.185879
-3.5532390351210004,2.235941943472448,0.5104409708318395,0.0138874505890513,0.0028564911003508,0.014671831486213,5.813285650991889e-06,-2.254113738489033e-06,-6.402866793952558e-06,12091,6.345968,35.893819,6.49412
-4.639836780531597,2.893342535160094,0.5206981506285157,0.0146159762696692,0.0043403008894115,0.0087457736095321,9.07456310012638e-06,-3.175076752466924e-06,-7.410604489684327e-06,12092,4.680292,38.042245,1.014158
-4.279372686860056,2.732818148927861,0.7664338917291653,0.0152078538896489,0.0056506445368658,0.0018410035520803,1.1883270610186043e-05,-3.968136737931375e-06,-8.237747417083427e-06,12093,3.536263,38.872645,-3.079326
-3.7092005103596986,2.5020338762145027,0.8567665172944134,0.0156302610096945,0.0067247028557392,-0.0057494562457448,1.318615874122643e-05,-4.442642864771876e-06,-9.239767485604055e-06,12094,5.085345,38.434633,-3.741235
-3.510802039553427,2.3634778986350016,0.7514087187571019,0.0158211597188621,0.0076907938460663,-0.0137238002916917,1.2261243577256816e-05,-4.459220474504568e-06,-1.0629436852645512e-05,12095,6.440597,36.807896,-4.902141
-3.3017901047758818,2.1688258461747205,0.6859203325720944,0.0157099769577559,0.0087161072089812,-0.0215210228124216,9.413883841168616e-06,-4.067465428353059e-06,-1.23204185335305e-05,12096,7.857163,34.25197,-6.124218
-2.727318549970835,2.03816159512005,0.7264580949174736,0.0152039057326093,0.0101007090265389,-0.0283068759787329,5.954636286488952e-06,-3.508523147822175e-06,-1.3965007354125165e-05,12097,9.610287,30.638853,-6.446215
-1.7498868700946306,1.7863183073278253,0.838026000113256,0.0142729555010307,0.011948847369371,-0.0336493771711685,3.15321082204126e-06,-3.0123769561117647e-06,-1.5193491418051002e-05,12098,10.795234,26.365308,-7.267645
-0.795702646989845,0.8875849937906044,0.917569908971358,0.0129603062113161,0.0141413684802582,-0.0375165508655378,1.4486423617108235e-06,-2.654975008557219e-06,-1.5835359647415056e-05,12099,10.566822,21.908044,-10.24294
-0.038108195312547,-0.4271227978651013,0.8874480060345415,0.0113382669264781,0.0165612009732908,-0.0399382288796581,6.718608065059095e-07,-2.4148969751173218e-06,-1.595916782193107e-05,12100,9.549673,18.099233,-16.201884
0.7291844132675152,-1.1951184286297645,0.8250466278770129,0.0095443213083012,0.0189872620814716,-0.0412128946293464,4.968651695406883e-07,-2.2525341536185074e-06,-1.5760335606287882e-05,12101,8.876834,14.454594,-22.371013
1.2474031276066273,-1.171957830315587,0.7819664519880933,0.0076522107595287,0.0212596649546781,-0.0414367389327081,4.948572596323684e-07,-2.095327442140977e-06,-1.5372306990180138e-05,12102,8.973826,10.505685,-26.90516
1.2764146678990778,-0.9946109597000126,0.7249647365178443,0.0056680957788493,0.0232940769207025,-0.0404858367253036,2.280427610241952e-07,-1.846428880427094e-06,-1.472917987298974e-05,12103,9.181476,6.632143,-31.239036
0.8800383506941025,-0.9540412837740962,0.5711178287935788,0.0036264119472819,0.0249043500028465,-0.0384308704888057,-3.019480278615939e-07,-1.4816855717370743e-06,-1.352932368378801e-05,12104,9.351228,3.121527,-36.218892
0.2166277158816727,-0.9240689359777376,0.3279277395204074,0.0015579959420492,0.0258320694577299,-0.0354412983057437,-5.535024009235961e-07,-1.0852917380003912e-06,-1.1409660059192855e-05,12105,9.587302,0.039166,-41.801395
0.046951466901609,-0.91979160034397,0.2088524009601388,-0.0005014947130868,0.0259474050587514,-0.0316562491220571,-9.66843474820638e-08,-7.478941894483608e-07,-8.341521796123469e-06,12106,9.9305,-2.345865,-48.357959
0.8466542340691501,-0.8994528197032952,0.2229134452796606,-0.0025013879682744,0.0252409006138646,-0.027243359297345,8.115299704726037e-07,-4.749479985496379e-07,-4.872263409838175e-06,12107,10.460685,-3.910391,-55.830093
1.7475171119700843,-0.7903638671750904,0.1602184000109356,-0.0044024143302053,0.0237534362874534,-0.022421320236342,1.4461829832211762e-06,-2.1797713387380297e-07,-1.9615048880506468e-06,12108,10.928347,-4.749995,-62.862143
2.002000889822241,-0.6741261594330128,-0.0148764258738561,-0.006172367094817,0.0216417830151243,-0.0174622293436182,1.3398938349492471e-06,3.469283003596714e-08,-4.25479284926158e-07,12109,10.894412,-4.842992,-67.57945
1.8336296860835235,-0.5952385347343472,-0.4000475726789689,-0.0077696056671345,0.0190337148979488,-0.0125920896228329,6.971188179966543e-07,2.3241126704565893e-07,-3.312048255823285e-07,12110,9.65617,-4.657927,-68.472391
1.4856798476193036,-0.5459389988891439,-0.9778934929839108,-0.0091458234087397,0.0160401387110879,-0.0079929259140725,7.401436515773984e-08,3.284861398518363e-07,-9.83708968584778e-07,12111,7.706909,-4.069555,-66.162944
1.3189476684946808,-0.5209198690802525,-1.1545269940984149,-0.0102501334946348,0.0129025040414425,-0.0038671650494886,-9.32508940168535e-08,3.209893944907343e-07,-1.5110922186293651e-06,12112,5.544831,-4.642718,-63.180684
1.7811690025138347,-0.4843258862142546,-0.6280953798066218,-0.0110251054804775,0.0099883615499591,-0.0004144790704232,3.452569623388462e-07,2.2640147610761418e-07,-1.4810285982968593e-06,12113,6.133844,-2.623038,-67.650191
2.474723303280414,-0.4332656258291339,-0.0582692990123685,-0.0114428330087056,0.007489836949668,0.0022680418063502,1.2012991578306463e-06,6.66669111839092e-08,-1.140826166822335e-06,12114,4.967516,-1.472421,-71.205905
2.6963020715420125,-0.4089604769447608,0.043853415525592,-0.0115099106342559,0.0054299597665709,0.0042012414723808,2.064320695198976e-06,-1.2051071935772602e-07,-1.056572162388078e-06,12115,4.284595,-0.625311,-72.630013
2.503656203716486,-0.4104402905057077,-0.0145216694361794,-0.0112523810187092,0.0038095051055501,0.0055168159102212,2.618557148923706e-06,-2.911561275064603e-07,-1.501332579207792e-06,12116,3.019243,0.169282,-73.778769
2.2970197771560814,-0.3921536500135567,-0.0098336710905723,-0.0107329414705564,0.0025183182124776,0.0065194594366168,2.8806055834273887e-06,-4.34570872499968e-07,-2.323717075657359e-06,12117,2.132581,0.420707,-72.15226
2.1579200774654352,-0.3547567348507133,-0.1020684531632662,-0.0099865477510289,0.0015631316908875,0.0073456324265187,3.0743785554704607e-06,-5.783738372762135e-07,-3.284357505787552e-06,12118,1.479613,0.789582,-71.574245
2.077359075044184,-0.3503703433813865,-0.3029890442842509,-0.0090209103753745,0.0010821879439792,0.0079654600245048,3.364668303558672e-06,-7.478823971051457e-07,-4.258088582732531e-06,12119,0.815456,1.634777,-74.606526
2.084231418626277,-0.3793316079382876,-0.4963068419648204,-0.0078661890280193,0.0011641281682815,0.0084127147198562,3.8712588453934335e-06,-9.669563044988532e-07,-5.220272288165358e-06,12120,0.030112,2.483343,-77.642692
2.0467311283431835,-0.3768434742466998,-0.6247839491219187,-0.0065621669765735,0.0019077133339089,0.0087033767501308,4.622101199714946e-06,-1.2604070008162296e-06,-6.344082318288793e-06,12121,-0.539108,3.054457,-77.628496
1.8889773094425184,-0.3407016458338631,-0.6685523373434528,-0.0051152230804165,0.0034104396103771,0.0088608543864166,5.430659577289253e-06,-1.62143114626719e-06,-7.937042030224809e-06,12122,-0.756016,3.285121,-75.827448
1.7200591512979804,-0.3259845635359505,-0.6356184601022197,-0.0034986928407069,0.0057510213670071,0.00893724496566,6.219508149102326e-06,-2.030008370875106e-06,-9.95812190705924e-06,12123,-1.177883,3.882396,-76.369653
1.583059381812539,-0.3359848699320734,-0.5733179321512544,-0.0016604197242618,0.0090404209092906,0.0089413150708506,7.291156358310499e-06,-2.505692987944816e-06,-1.1965297867956874e-05,12124,-1.912553,5.029522,-78.479947
1.442015119804937,-0.3442638883620989,-0.5438259122772672,0.0004954917002918,0.0134182068033854,0.0088449486764534,8.956704741433447e-06,-3.0939650757217788e-06,-1.3754852721437754e-05,12125,-2.143713,6.151204,-79.069279
1.3000678804902628,-0.3024888157346144,-0.552780277394646,0.0029396899914053,0.0187877065422205,0.0086363284488241,1.110932116483142e-05,-3.7729686648699553e-06,-1.530993264784691e-05,12126,-2.344526,7.587311,-80.61681
1.1838295236030671,-0.1671347656821242,-0.5988253683610911,0.0055008370403635,0.0247800978486005,0.0083068843068937,1.3331763578421902e-05,-4.390726517733566e-06,-1.5946368771345437e-05,12127,-2.355867,9.001724,-82.543847
1.020377762257049,0.0252773054361256,-0.7138676353218328,0.0079454151344979,0.0308320011455678,0.0078233097581234,1.5163720208514538e-05,-4.728272209168203e-06,-1.4464329935286886e-05,12128,-2.010758,10.467738,-85.297384
