AccX_processed,AccY_processed,AccZ_processed,GyrX_kalman,GyrY_kalman,GyrZ_kalman,MagX_processed,MagY_processed,MagZ_processed,PacketCounter,Roll,Pitch,Yaw
-0.645292163805563,0.1877871334250428,0.1183229301233572,-0.0028043365679642,0.0001405023991567,0.0020284862492261,-3.230935378427956e-07,-9.968071206071724e-07,-1.2342522818495162e-07,11582,-34.00712,76.994743,-19.807559
-1.894979342437276,0.5527178125335395,0.3492561679392293,-0.002564078918092,0.000182076458816,0.0018905628098779,-4.02427978027765e-07,-1.051111910313321e-06,-4.039410004943305e-07,11583,-34.09776,76.935526,-19.866214
-2.4834695123724355,0.7262907665073892,0.4643163078638,-0.0021915015712674,0.0002433791210072,0.0015715413543214,-4.834773394534588e-07,-1.1652022115685774e-06,-6.126795077743266e-07,11584,-34.179358,76.871199,-19.910365
-1.7940468303639807,0.5289267137045734,0.3535711309235588,-0.0015239621676432,0.0003140626706759,0.0011290341703352,-5.662416221198771e-07,-1.3390780243729411e-06,-7.4964075002494e-07,11585,-34.207528,76.813975,-19.905014
-1.8205593432266096,0.5421918845994873,0.36790250019484,-0.0007162990587125,0.0003902973574837,0.0006442008681544,-6.507208260270192e-07,-1.5727393487264114e-06,-8.148247272461707e-07,11586,-34.195194,76.764964,-19.87827
-1.7053468400050726,0.5123100000212865,0.3414317541374625,-0.0001107426599122,0.0004709197848914,0.0002104391811856,-8.142257678616125e-07,-2.211478549570604e-06,-6.891393761257061e-07,11587,-34.189065,76.713813,-19.855469
-1.459265149173724,0.438112266450905,0.2877344898762988,0.0002641821522498,0.0005549327557267,-0.0001434232700133,-8.762195046555976e-07,-2.4595775982977723e-06,-6.35316679854457e-07,11588,-34.197208,76.677815,-19.857168
-1.383423608797548,0.4115814806718235,0.2697503725590798,0.0005791768497451,0.0006425426972901,-0.0004361205052358,-8.635614902490441e-07,-2.440451805743458e-06,-6.073505212506341e-07,11589,-34.180084,76.658989,-19.837211
-1.1947031978816611,0.3552630301908225,0.233371098482589,0.0008659446550186,0.0007324620869953,-0.0006660564039697,-8.510306962816697e-07,-2.432398755504669e-06,-5.638677439553568e-07,11590,-34.169358,76.653945,-19.814911
-1.0224378895883923,0.3055249556449443,0.202801432079872,0.001077105283125,0.0008213206822971,-0.0008209860596259,-8.163299684397585e-07,-2.3030742624787405e-06,-5.811296481733911e-07,11591,-34.164608,76.662964,-19.807296
-0.8693507930969583,0.2611870998574073,0.176636471987682,0.001230935611208,0.0009052944708414,-0.0009135810802834,-7.356011209424862e-07,-1.9715520291803967e-06,-6.60596581816921e-07,11592,-34.180299,76.684465,-19.815393
-0.6803358273745892,0.2036768643639227,0.149459649115132,0.0013560679784085,0.0009789524754667,-0.000971860861608,-6.754860939808051e-07,-1.7449382328138748e-06,-6.917604276706845e-07,11593,-34.168655,76.708411,-19.820967
-0.5357052181729149,0.1543462997183216,0.1419496283280942,0.0014711314603891,0.0010396248524291,-0.0010081554162189,-6.612137054541375e-07,-1.719345866695987e-06,-6.619776685009774e-07,11594,-34.126768,76.736911,-19.810926
-0.3730821540968607,0.0985777261684274,0.1260013949120868,0.0015962159493758,0.0010877325724501,-0.0010214560845904,-6.120492765898524e-07,-1.557056483719686e-06,-6.581865538545431e-07,11595,-34.129962,76.756838,-19.853998
-0.1876626409196724,0.0352911755820794,0.0979983194043486,0.001732190246998,0.0011238452742033,-0.0010077809834453,-4.650163042258226e-07,-1.0198120681950311e-06,-7.134025445855285e-07,11596,-34.074565,76.77383,-19.861777
0.0051352145315725,-0.0375823678702924,0.0851058774841629,0.0018547820176456,0.001150114643692,-0.0009514933079584,-2.419743153520021e-07,-2.0481349077098906e-07,-8.016235697986749e-07,11597,-33.943841,76.787869,-19.83824
0.2102437264283368,-0.1149556465943289,0.0881370117364228,0.0019569630684652,0.0011679201563517,-0.0008522759806859,1.26275808817812e-08,7.117607094088005e-07,-8.946252640219389e-07,11598,-33.761094,76.787492,-19.832621
0.4062893916281189,-0.1735352582184597,0.0967617171865138,0.0020435047163002,0.0011777172285895,-0.0007263027579894,2.8265120536579164e-07,1.6562762100659074e-06,-9.642191756259804e-07,11599,-33.485884,76.76984,-19.815009
0.5721243407451448,-0.2149670104665977,0.1115578143402511,0.0021022689936357,0.0011815455155158,-0.0005867507575914,5.630130809215043e-07,2.605475418384371e-06,-9.919451077100968e-07,11600,-33.053371,76.741675,-19.707595
0.7032671424005924,-0.255741545530014,0.1323968004201535,0.002109590429924,0.0011826630775477,-0.0004512624998142,8.216934329758306e-07,3.4521744056040988e-06,-9.731832453055616e-07,11601,-32.468439,76.695296,-19.475287
0.8304257847159977,-0.2943284859695509,0.1507762323381515,0.0020590079256836,0.0011824398520721,-0.0003301363428696,1.0196345763916295e-06,4.048379098684712e-06,-8.864385274296937e-07,11602,-31.790831,76.64125,-19.133147
0.9716880291965722,-0.3354183351837555,0.1523781104385372,0.0019591696772921,0.0011804944290727,-0.0002235939099991,1.15718759644978e-06,4.384373705290136e-06,-7.145790911046698e-07,11603,-31.062725,76.586169,-18.71939
1.1170228027773903,-0.3800497437923625,0.120605674179423,0.00182269858222,0.0011759021640618,-0.0001324136459363,1.2782290142531734e-06,4.637096540387248e-06,-4.978760040945768e-07,11604,-30.25056,76.536843,-18.207596
1.2718464933808755,-0.3755543574510344,0.0590224520663384,0.0016744268447654,0.001166241079294,-5.342707052796933e-05,1.449118535925363e-06,5.0721005261096905e-06,-3.031366075933548e-07,11605,-29.32651,76.510868,-17.566233
1.438006121081851,-0.2865242976977694,-0.0014589073995647,0.0015234789484453,0.001149926496616,1.8493558911495767e-05,1.6670993294656677e-06,5.6776335687434e-06,-1.3327648423418117e-07,11606,-28.406933,76.52081,-16.895228
1.5846290439393218,-0.1747063788863007,-0.0483804627734622,0.0013615961899365,0.0011261762457945,9.051792428947542e-05,1.8273131008997736e-06,6.063888436336084e-06,6.198448735558115e-08,11607,-27.645684,76.575832,-16.293429
1.6802741437130149,-0.1224405011062718,-0.0978553245480096,0.0011825138294585,0.0010929205873566,0.0001780885758611,1.8696715998019128e-06,6.057836314010765e-06,2.4544146128854025e-07,11608,-27.100941,76.681036,-15.807714
1.7282702153259282,-0.1362014138053543,-0.1748803391777229,0.0009737244709802,0.0010471424638908,0.0003063512445034,1.8278408402560437e-06,5.867241840575653e-06,2.965165603949217e-07,11609,-26.828536,76.834555,-15.514208
1.7639901728124627,-0.1735475357448071,-0.3359832286611974,0.0007317665731935,0.0009876494225457,0.0004857485746787,1.7500101000121714e-06,5.6773653210763904e-06,1.9098701333235493e-07,11610,-26.993877,76.969771,-15.518073
1.8123596910280937,-0.2097979792518625,-0.5950318486250668,0.0004647930475236,0.0009150237321427,0.0007117565812226,1.6888657398849342e-06,5.59920321986211e-06,1.5441378920230984e-08,11611,-27.55971,77.04021,-15.808481
1.8781687780165692,-0.2453096086015336,-0.825663910492934,0.0001793324339348,0.0008306085442758,0.000977578985465,1.690522157480673e-06,5.741228245957373e-06,-1.731642755167854e-07,11612,-28.165673,77.056317,-16.148038
1.9704546314251647,-0.2878614308080163,-0.9033602951246432,-0.0001145493904254,0.0007374594676047,0.0012665120391567,1.7698609690985751e-06,6.164250598384673e-06,-3.88096292676685e-07,11613,-28.685047,77.065325,-16.462155
2.0809087673992086,-0.3403974845714284,-0.8746169976843183,-0.0004082490223923,0.0006383580313533,0.0015677587656339,1.910556943818136e-06,6.8206782147751314e-06,-6.391116724057669e-07,11614,-29.209731,77.086892,-16.867472
2.159902874727192,-0.3968383600498006,-0.8465478577729794,-0.000695623300924,0.0005360222428956,0.0018768125962135,2.061356571755707e-06,7.502433842740148e-06,-8.849396290763555e-07,11615,-29.61598,77.107894,-17.20245
2.1722178923445377,-0.4432282357667934,-0.8353274005791094,-0.0009658554514853,0.0004352439468523,0.0021805055478353,2.1622270065921423e-06,7.976424644650314e-06,-1.0836743054129129e-06,11616,-29.873758,77.079613,-17.293154
2.1472872142299533,-0.464580627444244,-0.817994736069807,-0.0012042408845181,0.0003429156034312,0.0024596219814044,2.1862703303238197e-06,8.158072906040524e-06,-1.2322808490739296e-06,11617,-29.860152,76.946595,-17.073735
2.1363905023171728,-0.4572376466114461,-0.7973237180625057,-0.0014018160727199,0.0002625365110847,0.0027041064256607,2.142629338898576e-06,8.079117584219634e-06,-1.3252681246405016e-06,11618,-29.459294,76.724649,-16.556818
2.162145203757393,-0.4346501799233892,-0.78186903809612,-0.0015549249599551,0.0001941889054006,0.0029120592318792,2.043766070943836e-06,7.753623550457623e-06,-1.3295910898325552e-06,11619,-28.709069,76.45748,-15.840989
2.2085085783813847,-0.4230197171887937,-0.7603921810938044,-0.0016612265394438,0.0001371696294533,0.0030842591270638,1.889473769648678e-06,7.16498887131591e-06,-1.2281146299062037e-06,11620,-27.736507,76.191071,-15.027115
2.23776235866202,-0.423671835455092,-0.6950727691276881,-0.0017225532488546,8.822004075094737e-05,0.0032286871559368,1.6856619832407931e-06,6.36534558146777e-06,-1.0612223329828894e-06,11621,-26.760522,75.95866,-14.2084
2.244374463376019,-0.4138574109633847,-0.5936132673888337,-0.0017379994668064,4.528962901446656e-05,0.0033480399883175,1.454912892400735e-06,5.4785840565729925e-06,-8.917108491722283e-07,11622,-25.894137,75.784723,-13.393328
2.266642323455574,-0.3858512709518744,-0.5273987814275971,-0.0017038675414045,7.501760762815545e-06,0.0034396835738405,1.224732395491382e-06,4.605172358597041e-06,-7.353753180306213e-07,11623,-25.097068,75.631996,-12.567954
2.304489166401723,-0.3170408086700155,-0.5070650003645611,-0.0016197172505983,-2.848491095292623e-05,0.0035059260522355,1.0062975710434962e-06,3.7424636524119367e-06,-5.443188847656651e-07,11624,-24.184926,75.467888,-11.649195
2.305398478859237,-0.1854204533435296,-0.4815562935005086,-0.0014871538973713,-6.800880044072575e-05,0.0035516278599237,7.762358770247454e-07,2.771058131654273e-06,-2.656213192180723e-07,11625,-23.199474,75.264002,-10.674766
2.2614269126691147,-0.0569058487807252,-0.4477679536711396,-0.0013071551072815,-0.0001135593168838,0.0035781495995283,4.985601864145004e-07,1.591176382417501e-06,7.478638683089893e-08,11626,-22.31823,75.001357,-9.784426
2.214678157083023,-0.0189665139969463,-0.4252401439800914,-0.001081014616022,-0.0001650037751138,0.0035842638208538,1.869053713232541e-07,3.331662202115149e-07,3.6921533765253035e-07,11627,-21.552124,74.683446,-9.02357
2.173585780810648,-0.0010420868734292,-0.4059845780443538,-0.0008113726983898,-0.0002216412095732,0.003567520533374,-9.156447534105049e-08,-7.128528207768147e-07,5.359968737163978e-07,11628,-20.747582,74.313199,-8.29477
2.1161349634605653,0.1490396474374038,-0.3872265716389091,-0.0005022062067663,-0.0002807852666117,0.0035226417648496,-3.155387033521387e-07,-1.4984450888597202e-06,6.045679295866851e-07,11629,-19.871671,73.891475,-7.614566
2.0400774242518187,0.3866868015938727,-0.368944222266298,-0.0001631111595996,-0.0003416263334266,0.0034478628288595,-5.335415149100561e-07,-2.2409909205179915e-06,6.449032438312557e-07,11630,-19.002198,73.451531,-6.993247
1.9647070093611252,0.5114659971836155,-0.3438419376430262,0.000189202167431,-0.0004053868075355,0.0033451404839335,-7.518179368438096e-07,-2.9845570969268264e-06,6.876695726629237e-07,11631,-18.31626,73.014706,-6.516259
1.9349775028565552,0.4768939063299238,-0.3191594829522386,0.0005310818089327,-0.0004722629394474,0.0032159408136874,-9.436238884946074e-07,-3.6869732771987575e-06,7.928250972736287e-07,11632,-17.836798,72.603827,-6.203377
1.9729443321470577,0.412276239645197,-0.2994664778244831,0.0008283752435183,-0.0005423495141996,0.0030630173095693,-1.1408158218366748e-06,-4.514557257520027e-06,1.0340628071612637e-06,11633,-17.443347,72.21804,-5.94989
1.9997785661359544,0.3768603290650107,-0.2751251045765303,0.001063351376408,-0.0006160498639193,0.0028873900026314,-1.3802127545698866e-06,-5.5593323943621e-06,1.367857313848296e-06,11634,-17.045845,71.843787,-5.663311
1.926044908958464,0.3341998018207397,-0.2470662328318654,0.0012358622273013,-0.0006937916286211,0.0026878189341653,-1.658264047104468e-06,-6.727257405782053e-06,1.6896317254585613e-06,11635,-16.608165,71.474604,-5.32379
1.779097691060867,0.2827821630692407,-0.226466457266828,0.0013479462984126,-0.0007765118063536,0.0024635339296414,-1.975731089741862e-06,-7.991825577115624e-06,1.968002914889726e-06,11636,-16.20407,71.097597,-5.033385
1.6453309004795282,0.2263245918167104,-0.2110577086929178,0.0014125847894279,-0.0008657649406143,0.0022132425341713,-2.3354406021467165e-06,-9.355933688471686e-06,2.194157970478232e-06,11637,-15.836514,70.708283,-4.816272
1.546654291016181,0.1519363420327699,-0.1905571045535091,0.0014375215474957,-0.0009628516318063,0.001936002529598,-2.6816820570137945e-06,-1.058291003644585e-05,2.2969524329520485e-06,11638,-15.540202,70.334672,-4.719583
1.4467061211537278,0.0759759754071612,-0.1650587779341499,0.0014249328685981,-0.0010689603903157,0.0016314811858349,-2.9026611483670294e-06,-1.1266582053469514e-05,2.2322502200119297e-06,11639,-15.427236,70.016368,-4.784266
1.3274032255871218,0.0138201728465896,-0.1314120307342644,0.0013879540790395,-0.0011857844480062,0.0012986937102423,-2.952440123847532e-06,-1.1316751381230514e-05,2.081381260067241e-06,11640,-15.536759,69.790021,-5.025423
1.1914288491535996,-0.043360381556375,-0.0847287727696588,0.0013485284602725,-0.0013154614303393,0.0009362190753241,-2.870630689499911e-06,-1.0938940152148036e-05,1.9371694339427378e-06,11641,-15.79678,69.66439,-5.380955
1.0523676870145344,-0.0972687209737046,-0.0414915050358865,0.0013165106237641,-0.0014573614026388,0.0005455698723526,-2.679605435368887e-06,-1.0183841290462896e-05,1.767908515849703e-06,11642,-16.135651,69.619126,-5.820018
0.9108263359141042,-0.1314803600183565,-0.0215173231709389,0.0012908268957925,-0.0016076806226096,0.0001315557597498,-2.421587294597946e-06,-9.15515103323666e-06,1.5287683171992243e-06,11643,-16.47565,69.632177,-6.293716
0.7443782311166616,-0.1571497946603947,-0.018517417549184,0.0012682939765521,-0.0017604726356153,-0.000298625114016,-2.2179226348092003e-06,-8.301118994148701e-06,1.2812251559995935e-06,11644,-16.909982,69.681248,-6.856423
0.6002232291554379,-0.1969637419724885,-0.0106777953013138,0.0012376773228185,-0.0019060308608422,-0.0007336879160027,-2.1490632983336903e-06,-7.901744563817425e-06,1.0413471865664871e-06,11645,-17.522604,69.765669,-7.54462
0.5045892925797743,-0.2415608948073122,0.0020897219202996,0.0011965145296505,-0.0020319910375531,-0.0011592983629146,-2.131124862969365e-06,-7.579088094611664e-06,6.797459803301549e-07,11646,-18.392579,69.827578,-8.398362
0.317160909752231,-0.2842576918213011,-0.0045538678401526,0.0011520231366674,-0.0021221053279899,-0.0015566845443722,-1.991824155697309e-06,-6.68804398779641e-06,1.006807788249087e-07,11647,-19.435137,69.794629,-9.436519
0.0027329547266054,-0.2873742222553605,-0.039239362890201,0.0011083086031273,-0.0021526164973625,-0.0018987874298883,-1.6308383321306905e-06,-4.969581074275425e-06,-6.056698605259807e-07,11648,-20.5517,69.684068,-10.711984
-0.2215783466133748,-0.3202386175646672,-0.0953293899288747,0.0010708216926048,-0.0020902171721748,-0.0021479407504027,-1.055798190756683e-06,-2.589140182837984e-06,-1.2577739278530389e-06,11649,-21.786498,69.693349,-12.263148
-0.2754048313953701,-0.6202757390650921,-0.1679060667408927,0.0010428045766371,-0.0019266755324127,-0.0022856778170529,-3.5389976106662093e-07,1.0324579831087401e-07,-1.7664063774785409e-06,11650,-23.205444,69.957506,-13.999632
-0.3275639253199869,-1.0625680836991869,-0.2470942128397064,0.0010237604737038,-0.0016815488149452,-0.0023140090291156,2.824005052926705e-07,2.4596879761679966e-06,-2.1113944991464404e-06,11651,-24.206615,70.322176,-15.454689
-0.4336479585153688,-1.2569654860925894,-0.3414651076800476,0.0010142520716025,-0.0013865010882176,-0.0022401020229669,5.912494835437347e-07,3.563164044221588e-06,-2.2284455984093157e-06,11652,-24.426264,70.587874,-16.217271
-0.5050977381906816,-1.3291704214305184,-0.4583649864049109,0.0010144345193934,-0.0010993423712912,-0.0020866256706267,4.2916075125483366e-07,2.912434939371805e-06,-2.084101528917499e-06,11653,-24.32997,70.684769,-16.27829
-0.5401137785295206,-1.5581343955903666,-0.5379489932338732,0.0010232214514367,-0.0008433973515094,-0.0018741634358384,-8.790082578486618e-08,9.483305965007736e-07,-1.7521616761396828e-06,11654,-24.136939,70.574455,-15.827419
-0.5765257598217124,-1.7326580118176276,-0.5207332989863607,0.0010384958593245,-0.0006044140949244,-0.0016225053447878,-6.699950256630544e-07,-1.2692744246592608e-06,-1.3646264149285196e-06,11655,-23.811516,70.331333,-15.265236
-0.609452534895151,-1.7068523482239877,-0.4527522949604114,0.0010558928343807,-0.0003707609043489,-0.0013712875518129,-1.0486200093862606e-06,-2.756834024529596e-06,-1.0471088787683626e-06,11656,-23.291553,70.11194,-14.82613
-0.6362453908238251,-1.675622476180066,-0.4021867591561107,0.0010681332465077,-0.0001153098849305,-0.0011803088889401,-1.1124010868258229e-06,-3.09576863775664e-06,-8.648662737035362e-07,11657,-22.610976,70.042092,-14.630675
-0.6714645813239299,-1.6474606053973777,-0.3625414926972902,0.0010720641638072,0.0001686732665142,-0.0010749252177895,-9.200377881488454e-07,-2.497118084049378e-06,-7.989609575794033e-07,11658,-21.941724,70.130768,-14.625915
-0.7297266634258384,-1.5274031602626186,-0.31960295734943,0.0010687444876497,0.0004624629853767,-0.0010454722430883,-6.273583506026091e-07,-1.553344262018702e-06,-7.526138344168067e-07,11659,-21.4953,70.317857,-14.760236
-0.7903412204036996,-1.3752120939804162,-0.2816496114489909,0.0010595763956893,0.0007525429014836,-0.0010729354735296,-4.08889298512578e-07,-9.24501345632357e-07,-6.11793902275336e-07,11660,-21.306102,70.51294,-14.923443
-0.8187003619350652,-1.2067098929756206,-0.2223219689694994,0.0010484354005608,0.0010192729552191,-0.0011108389077592,-3.771260595350291e-07,-1.0285768694536063e-06,-3.140101154734215e-07,11661,-21.02562,70.689898,-14.888323
-0.8206224750177459,-1.0206483797461827,-0.1137558248682817,0.0010372661478357,0.0012505746447597,-0.0011417188520263,-5.308041534254726e-07,-1.87524219158083e-06,1.4738337223288585e-07,11662,-20.395295,70.836395,-14.508514
-0.8228320858916254,-0.8146149569308434,0.0033003310292895,0.0010258212047653,0.0014455129011691,-0.0011797584396364,-7.843081261564333e-07,-3.129798350370269e-06,7.030904346278061e-07,11663,-19.437772,70.957494,-13.85192
-0.8271023698224461,-0.5368667843639708,0.0689156097671223,0.0010156615788553,0.0015990044899411,-0.0012283143773341,-1.0535823894237642e-06,-4.409907963036451e-06,1.228364907447774e-06,11664,-18.456339,71.065027,-13.126165
-0.8167803558525957,-0.2785926195789634,0.0859482502837517,0.0010092135757539,0.001706411225347,-0.0012946466499586,-1.303731904344763e-06,-5.5378174934269135e-06,1.6412892995549858e-06,11665,-17.73344,71.188664,-12.548595
-0.7800934255145469,-0.1608307664803813,0.0975224658286846,0.0010076954116683,0.0017633488268018,-0.0013828344561221,-1.4980987949084127e-06,-6.405413057341651e-06,1.947446103142025e-06,11666,-17.317236,71.365389,-12.229875
-0.7155506040132606,-0.1109595636165092,0.1339245718455766,0.001011482781872,0.0017641398177667,-0.001489469221846,-1.6081692718115682e-06,-6.9885085726337935e-06,2.236774798485982e-06,11667,-17.142682,71.583436,-12.146982
-0.6546685934479499,-0.0096229044084616,0.190687542360956,0.001020455660149,0.0017056959527801,-0.0016180315010743,-1.7008680974219197e-06,-7.560401328436602e-06,2.5857681185585734e-06,11668,-17.027942,71.828164,-12.126594
-0.6222490898901991,0.1711633088170988,0.2351482392947985,0.0010334563889,0.0015873463639635,-0.0017765344507935,-1.8845479000537432e-06,-8.430898650950806e-06,2.9325585142277152e-06,11669,-16.858697,72.081946,-12.092096
-0.6092967819294641,0.3800825385656802,0.270411890044049,0.0010504304074074,0.0014095400224389,-0.0019734378026657,-2.190846887954993e-06,-9.633099741428623e-06,3.1775598142799097e-06,11670,-16.734882,72.328159,-12.06335
-0.6196840830278825,0.5251357954352893,0.3295217913643162,0.001072448860632,0.0011750404250031,-0.0022203631734057,-2.5673098604456187e-06,-1.100111506915629e-05,3.333641009139195e-06,11671,-16.71856,72.541882,-12.074362
-0.6032162105934943,0.5757864929658361,0.3847067592547271,0.0011002458212264,0.0008903508713394,-0.002533642357631,-2.9314850889140438e-06,-1.2298491045999376e-05,3.454540885621081e-06,11672,-16.861017,72.71388,-12.14598
-0.5649838184898617,0.5853420234927409,0.3956648860254164,0.0011347552138137,0.0005667996869616,-0.0029355599353879,-3.1912895799511035e-06,-1.3195936414497928e-05,3.5039344253638945e-06,11673,-17.196784,72.863007,-12.399647
-0.7176857015971261,0.5904614247098396,0.387922658212334,0.0011767635549638,0.0002101184001234,-0.0034219433450697,-3.2326996994313467e-06,-1.3265697205735135e-05,3.413122970766164e-06,11674,-17.807472,73.003258,-12.961646
-1.07280276370485,0.5867724560579685,0.396539079519587,0.0012267681734014,-0.0001795509743159,-0.0039581518811586,-2.971191522951411e-06,-1.2251033503046258e-05,3.21720729265671e-06,11675,-18.577905,73.32607,-13.872515
-1.2834278940278,0.5781736522214884,0.4463772250596884,0.0012855462054519,-0.0006013690688538,-0.0044917608713464,-2.4495927266637565e-06,-1.032228997304155e-05,2.953830236801879e-06,11676,-19.665048,73.897942,-15.018594
-1.2187052615810452,0.5781117744054868,0.5443526277744469,0.0013540576528756,-0.0010566161018677,-0.0049371895518623,-1.8364146576431227e-06,-7.974640148078975e-06,2.53318346665834e-06,11677,-21.072801,74.721513,-16.609649
-1.1029140707253438,0.5813624040391967,0.6283964121763238,0.0014333508793275,-0.0015367036251614,-0.005242927979062,-1.268945162360308e-06,-5.629523819107197e-06,1.9054668148169844e-06,11678,-23.19659,75.572371,-18.781806
-1.0639323180713771,0.5460111698732885,0.638617865998623,0.0015246838614703,-0.0020209880686358,-0.0053927774915663,-7.363700219410469e-07,-3.328672960011786e-06,1.1749313078668778e-06,11679,-26.223336,76.29224,-21.540594
-1.0183661422920554,0.4207290941754091,0.6148447426787995,0.0016295716122303,-0.0024829019878016,-0.0053588553418122,-2.010498212168113e-07,-1.035577645807623e-06,4.661197602391308e-07,11680,-29.801406,76.803789,-24.6921
-0.8577655245083596,0.2412602213629176,0.6282319864351604,0.0017498774614399,-0.0028841156979662,-0.0051185906786259,2.888291574221706e-07,1.051024916703172e-06,-1.6196956553020236e-07,11681,-33.106633,77.062638,-27.824245
-0.5884891693122125,0.1040648876888423,0.6712342510724272,0.0018863872624502,-0.0032001903156029,-0.0046790020600732,6.964454579399199e-07,2.788628734805725e-06,-6.78856274396148e-07,11682,-35.52418,77.080265,-30.563573
-0.3863855041033992,0.0002297621872874,0.68780674119648,0.0020386664456864,-0.0034215940516583,-0.0040789696651882,1.0251180391632491e-06,4.164865986443841e-06,-1.0565939349056478e-06,11683,-36.989252,76.956809,-32.756939
-0.3288473668441914,-0.1304511763314282,0.6661561367216291,0.0022056934754522,-0.0035362423437664,-0.0033981012709045,1.1887908252912023e-06,4.891931186690572e-06,-1.3019273525990216e-06,11684,-37.848435,76.72385,-34.362329
-0.2543536736612699,-0.2402311044832968,0.6352316196953716,0.0023852456740573,-0.0035366952107877,-0.0027744603240552,1.057615955626237e-06,4.571848987356594e-06,-1.4682239698840377e-06,11685,-38.552424,76.377279,-35.487924
-0.0924792934683666,-0.2649872071113006,0.601660192046892,0.002574545985024,-0.0034219754281692,-0.0022738212826149,6.862740812267867e-07,3.426339870103204e-06,-1.6102843589792362e-06,11686,-39.41837,75.960857,-36.45654
0.0845455947080481,-0.2409206558164944,0.5557825961648603,0.0027699625380847,-0.0031980538009969,-0.0018884085480125,2.8577483181688334e-07,2.1760410827951443e-06,-1.746093742698487e-06,11687,-40.301229,75.551553,-37.367016
0.2296772272490022,-0.2193517684805353,0.5091785847655108,0.0029657091443409,-0.0028851614600987,-0.0016158106767406,-1.4716903416060636e-08,1.2440972404106577e-06,-1.8548594857768483e-06,11688,-40.906914,75.20944,-38.172941
0.2867460327378321,-0.1961613346960276,0.4682844818517973,0.0031533777522075,-0.0025219426448214,-0.0014223401725113,-1.7262075758913898e-07,7.593088162000309e-07,-1.9126621567374085e-06,11689,-41.210913,74.932241,-38.856821
0.2558301675334289,-0.1656568459772349,0.4237264045002952,0.0033275012527803,-0.0021252836111373,-0.0013064073498549,-1.2567543512486894e-07,9.49043788710355e-07,-1.950116776896429e-06,11690,-41.26384,74.716573,-39.375569
0.2258369754421499,-0.1322260045734563,0.3785655413807472,0.0034854653485854,-0.0016905952538839,-0.0013064834279409,1.1856848638074698e-07,1.834251186914132e-06,-2.0365736080834947e-06,11691,-41.197115,74.561875,-39.792493
0.2260424938102312,-0.0937210844240546,0.3409071826575439,0.0036242449989092,-0.0012154163500357,-0.0014419763026838,4.2096120221955126e-07,2.9239620634172e-06,-2.1439248440175885e-06,11692,-41.045855,74.467143,-40.048676
0.2266679648898536,-0.0587645049504287,0.3118764189640282,0.0037418572755175,-0.0006885779346197,-0.0017303845382386,6.904976576210173e-07,3.818560627988745e-06,-2.148713283279224e-06,11693,-40.947258,74.449164,-40.373991
0.2357626191779909,-0.0279272882772381,0.2900636553211395,0.0038331290874204,-0.0001186405612011,-0.0021628942754848,9.846080530943065e-07,4.700520819008088e-06,-2.0306706556265925e-06,11694,-40.930766,74.514911,-40.790322
0.256317855289366,0.0100318854924287,0.2926565798066989,0.0038889440793869,0.0004615567084713,-0.0026921778010375,1.3621315132454485e-06,5.847788304997756e-06,-1.8837980788338515e-06,11695,-40.997985,74.691595,-41.316391
0.2537058982943386,0.0606240997543712,0.3527896764368422,0.0038988820233318,0.0010143838917446,-0.0032499062250715,1.8314654380065092e-06,7.34148282443449e-06,-1.7749669827817051e-06,11696,-41.200688,74.981219,-41.971434
0.2105054081007458,0.1199101179402448,0.4602646679447099,0.0038493560926999,0.0014860850070646,-0.0037291079038701,2.4332131981593477e-06,9.339625691876475e-06,-1.7406504234319292e-06,11697,-41.588506,75.390928,-42.727222
0.1394737573291166,0.1685592013813791,0.55191275828478,0.0037320710946604,0.0018474883606982,-0.0040758377891834,3.19722569295851e-06,1.1973808925169078e-05,-1.827069738122869e-06,11698,-42.240588,75.880427,-43.669669
0.0783533482165793,0.1948008034256893,0.5757270361468576,0.0035447223992137,0.0020977373491204,-0.0042938794721086,4.083989844716734e-06,1.5119034946384848e-05,-2.046762583371443e-06,11699,-43.05568,76.420611,-44.695835
0.0283324581508358,0.2158849674956132,0.5328042689110131,0.0032856958332196,0.0022365380769732,-0.0043859619204133,5.057844409923029e-06,1.859452562968616e-05,-2.3298173210371345e-06,11700,-43.913821,76.999672,-45.750679
-0.0797435639734558,0.2547261678924548,0.4615161490100544,0.0029569743652291,0.0022776633730904,-0.0043819418840078,6.100082701593101e-06,2.223601540292812e-05,-2.5478273928549386e-06,11701,-44.809306,77.591128,-46.85025
-0.2307928991914802,0.3100618317305867,0.3943529817486374,0.002559721874191,0.0022278522365854,-0.0042803852108809,7.146531912565926e-06,2.577014364691845e-05,-2.609892085910904e-06,11702,-45.836273,78.157657,-48.098352
-0.3621953863879512,0.3490358000310711,0.3371327374650733,0.0020943214772544,0.0020854273851244,-0.004041876381375,8.169010457974306e-06,2.9149030636320427e-05,-2.562784404877509e-06,11703,-46.897822,78.66804,-49.422918
-0.5700334784038973,0.3462548069708782,0.2809527142733947,0.0015656425563166,0.0018634214252855,-0.003639178356308,9.239118884738263e-06,3.272755461563057e-05,-2.5596039506022203e-06,11704,-47.76744,79.122773,-50.645618
-0.8753161960725585,0.3524830867236329,0.2208688005825416,0.0009828670467565,0.0015864171962042,-0.0030403890720331,1.037958757569044e-05,3.666799106992549e-05,-2.719496399492593e-06,11705,-48.48926,79.597555,-51.866877
-1.0224376243025326,0.4575595901163657,0.1611750730073053,0.0003522008568948,0.0012654482718944,-0.0022285466562572,1.1464241104865748e-05,4.05413215968443e-05,-3.0345636339005e-06,11706,-49.79744,80.09905,-53.593154
-0.9405265486957431,0.6606079976394058,0.095372681185373,-0.0003222627720008,0.0009001652370219,-0.0012091136348035,1.2329067407500576e-05,4.371416545638444e-05,-3.395603550941343e-06,11707,-52.462165,80.574791,-56.424571
-0.914961644234336,0.8717353234213229,-0.014919047097379,-0.0010343317772708,0.0004894792180001,9.857377401172214e-06,1.2868147748865584e-05,4.5737667313908015e-05,-3.682533624831677e-06,11708,-55.613683,80.814923,-59.390938
-1.042576628099829,1.0376844803755718,-0.204177226401155,-0.0017769005691888,2.52166234984935e-05,0.0014080303642129,1.2961792096710891e-05,4.609394053784864e-05,-3.741607166866325e-06,11709,-56.829607,80.798758,-60.25407
-1.1464257447193278,1.095362136250989,-0.4403416316707524,-0.0025346274814662,-0.0004862376716303,0.0029512255021152,1.2473165602904097e-05,4.419837147209001e-05,-3.4031560686449806e-06,11710,-55.236081,80.576357,-58.255062
-1.1208773245195611,0.9343242073244526,-0.6484467160961433,-0.0032816706191251,-0.0010215000304028,0.0045882799831494,1.142075174136369e-05,4.015101535312109e-05,-2.715526242773436e-06,11711,-51.61835,80.165664,-54.247675
-0.9519622073239428,0.6376020757555061,-0.8035558909237456,-0.0039836723056177,-0.0015537602039494,0.0062367229765384,9.993810191865027e-06,3.481218547692813e-05,-1.977423646905167e-06,11712,-47.910918,79.598607,-49.979943
-0.709931129826141,0.4336349588948618,-0.9431698359034524,-0.0045926040240529,-0.0020446917719477,0.0077734636778993,8.356097772667803e-06,2.892645844854996e-05,-1.4489188447658562e-06,11713,-45.637448,78.922118,-46.703531
-0.4788757794297661,0.39320154777556,-1.085221531351043,-0.0050820571233691,-0.0024676869458964,0.0091318507251831,6.5705351509433125e-06,2.273009612212787e-05,-1.1649392262868713e-06,11714,-44.913425,78.128681,-44.501706
-0.2665259818964886,0.4856919337364775,-1.1972657637975934,-0.0054489972731026,-0.0028092809787327,0.0103030847955845,4.708944846841322e-06,1.6369074889603825e-05,-9.957763060674449e-07,11715,-44.640767,77.163388,-42.726582
-0.1062575596268403,0.657172691403953,-1.2483334148090095,-0.0056932660539823,-0.0030508850358321,0.0112817647461823,2.899553655016591e-06,1.0163461654767102e-05,-7.873767202288045e-07,11716,-43.539239,76.007619,-40.586598
0.0632719746529289,0.754574514376015,-1.24464457791011,-0.0058291698080344,-0.0031748655592292,0.0120950946823455,1.2065840895063192e-06,4.236483181546591e-06,-4.154279230164274e-07,11717,-41.21365,74.735511,-37.845474
0.4202191532900981,0.6843668542437742,-1.2114985398522853,-0.0058646615437891,-0.0031808449822508,0.0127386570200924,-4.577870843825851e-07,-1.7879969652759502e-06,2.2373533767601826e-07,11718,-38.178871,73.403159,-34.748009
0.8507697579785369,0.56831105338499,-1.1564683836962988,-0.0058009974204885,-0.0030874884706042,0.0131713770133709,-2.2356408704016627e-06,-8.376900911048254e-06,1.1176601314101291e-06,11719,-35.236329,72.027133,-31.669971
1.016209616864753,0.5212063226208119,-1.0709064169630915,-0.0056544782948438,-0.0029333656264061,0.0133706099690546,-4.158914263937963e-06,-1.546145865373579e-05,2.0396147166859903e-06,11720,-32.915621,70.600042,-28.86654
0.9274016981191322,0.5124953080384311,-0.9683036884879624,-0.005453943072111,-0.0027871809777239,0.0133159237082008,-6.133737319872414e-06,-2.253358797921769e-05,2.7332821204708683e-06,11721,-31.182121,69.165527,-26.367631
0.8277491390846488,0.5154675766829246,-0.8735768460255595,-0.0052129107939055,-0.0026753971726632,0.0129919827702021,-8.072144018098357e-06,-2.927709380550263e-05,3.1612046933848806e-06,11722,-29.88939,67.782133,-24.228932
0.7599685598583693,0.5203689970494925,-0.7904590616294854,-0.0049314248989797,-0.0025801610806226,0.0123959708939728,-9.912905190618309e-06,-3.557315190551395e-05,3.4293126476326423e-06,11723,-28.981838,66.473013,-22.517822
0.6918358097159878,0.5046616791381591,-0.7089426031528543,-0.0046085320101426,-0.0024820253177542,0.0115265505699318,-1.153641344481373e-05,-4.106955082801926e-05,3.5954524615648053e-06,11724,-28.299378,65.254112,-21.220644
0.6107336157207313,0.4694244823933818,-0.6045474546563019,-0.0042349308129771,-0.0023379382675109,0.0103884712446453,-1.283405986352502e-05,-4.541239449812994e-05,3.663961054600502e-06,11725,-27.756363,64.163391,-20.263537
0.4764993355599251,0.4383195005298411,-0.4615754560115482,-0.0038163395904165,-0.0021261346762703,0.0090025308873281,-1.3827871012852752e-05,-4.871690561577858e-05,3.68328521209266e-06,11726,-27.410344,63.209352,-19.593629
0.3260445466541034,0.4277194106928312,-0.3114762119057354,-0.0033759554999918,-0.0018498565706711,0.0074087283480065,-1.4585690853211318e-05,-5.1258071411140106e-05,3.721479957601361e-06,11727,-27.252882,62.35712,-19.186125
0.1990160721015312,0.4103438622083986,-0.1945390498013153,-0.0029389883746051,-0.0014971729979088,0.0056713986362304,-1.509239697340427e-05,-5.295983169064683e-05,3.7555828107607535e-06,11728,-27.119844,61.625534,-18.911844
0.0031275850873992,0.3720049801023753,-0.1101472898295478,-0.0025409148987799,-0.001051869241585,0.0038892563682205,-1.5324672286108887e-05,-5.370711126679438e-05,3.738614288020409e-06,11729,-26.896353,61.041387,-18.699663
-0.2859928254114906,0.3259319076821599,-0.0321335366816365,-0.0021998604591981,-0.000508392060455,0.0021186706056791,-1.534441241911951e-05,-5.372341853716971e-05,3.685940438284016e-06,11730,-26.604234,60.651679,-18.522239
-0.483924412099506,0.2640319533501101,0.0559291599915375,-0.0019135672545759,0.0001312092142863,0.0003728151974376,-1.5177433091356593e-05,-5.30858501111159e-05,3.579604246379241e-06,11731,-26.393578,60.50073,-18.442315
-0.5166269127048633,0.1808897696001132,0.1380311197079753,-0.0016781276027039,0.0008556304679006,-0.0013320627769088,-1.4679064714901006e-05,-5.1250718042523456e-05,3.335408871625571e-06,11732,-26.507133,60.612174,-18.645222
-0.51976521982114,0.0843340164027822,0.1808201651017463,-0.0014782960995437,0.0016392546433539,-0.0029982356046444,-1.3667825238731554e-05,-4.758574394706344e-05,2.914290802936652e-06,11733,-27.058171,61.099946,-19.274041
-0.5790055240017561,-0.0026623153447012,0.1892750623054301,-0.0013000276111043,0.0024570957371922,-0.0045994144444362,-1.2176679968208213e-05,-4.228198665477008e-05,2.423925026219898e-06,11734,-27.934185,61.935182,-20.266124
-0.7535623290487412,-0.0819795301713736,0.1952461696831384,-0.0011303174537561,0.0032815708259106,-0.0060741716101495,-1.0452578925739893e-05,-3.627445725958314e-05,2.0216782702997207e-06,11735,-28.494727,63.082807,-21.303199
-1.0148049858665087,-0.223596975299818,0.2034242903455327,-0.000940484796724,0.0040673460305925,-0.0073632812855716,-8.786960728060065e-06,-3.053310886607509e-05,1.717561161098696e-06,11736,-28.80429,64.297145,-22.123371
-1.084269193919162,-0.4609231215423519,0.2142065519795997,-0.0006859478487563,0.0047498450252316,-0.0083938076566923,-7.441823674720255e-06,-2.5868936529604536e-05,1.4329630530718415e-06,11737,-29.269194,65.508917,-22.725315
-0.8211789572759047,-0.7062949276595546,0.2590914592564893,-0.0003499329676147,0.0052979617255782,-0.0091419642351838,-6.533060645689357e-06,-2.26506893313295e-05,1.1455253913335812e-06,11738,-30.438499,66.648499,-23.261707
-0.4903785593856438,-0.8439713629231537,0.3725444746029684,5.60078274454551e-05,0.0057152615879153,-0.0096442846412482,-5.869417629256751e-06,-2.023744417320961e-05,8.52942471581495e-07,11739,-32.063663,67.673211,-23.827628
-0.2951548169696092,-0.8605759886198977,0.5151940862202817,0.0005122732996654,0.0060142733562228,-0.0099624645287084,-5.038725106881519e-06,-1.7230562675936724e-05,5.202405559666012e-07,11740,-33.465042,68.588354,-24.497897
-0.1302131923699245,-0.8308311299192587,0.574641727226502,0.0009765631960246,0.0062342694048163,-0.0102124988177743,-3.752146577996696e-06,-1.2673333412620326e-05,1.5020384418217225e-07,11741,-34.278024,69.520213,-25.371488
0.0614055923938281,-0.8165611077437758,0.5397474962256091,0.0014118624846623,0.0063981904845246,-0.0104421175704736,-2.073575033255331e-06,-6.864957439795817e-06,-1.4555291852719664e-07,11742,-34.588308,70.536842,-26.440496
0.1835893009908624,-0.8051183686592867,0.5476155684326609,0.0017847340314907,0.0065124089571156,-0.0106245760838558,-2.47257044521879e-07,-6.796607672363484e-07,-2.854056457523233e-07,11743,-34.678892,71.60457,-27.56476
0.19481673318946,-0.7441120897938428,0.6333042362905076,0.0020350488296527,0.0066053248274977,-0.0107419576489979,1.5516676878512771e-06,5.361273970846948e-06,-3.476329121330089e-07,11744,-34.848493,72.664169,-28.678671
0.1511798290951657,-0.6521698559824247,0.6809580437404019,0.0020767988652349,0.0067202344776342,-0.0107493597594725,3.204127416697186e-06,1.09211600033014e-05,-4.0956953016697843e-07,11745,-35.374425,73.714006,-29.809444
0.1110823513703711,-0.5861696960824371,0.6717628695413203,0.0018896589605425,0.0068638672167636,-0.0106314879907628,4.633091929867647e-06,1.5725179463233116e-05,-4.481229084908105e-07,11746,-36.387858,74.806434,-30.985103
0.0885305674669641,-0.5523322768803421,0.6749931712585109,0.0015236897397737,0.0070061683651649,-0.0104116417410846,5.90535974787843e-06,2.001306592666323e-05,-4.897347826562467e-07,11747,-37.729424,75.96272,-32.276442
0.0783699516750818,-0.5219749446522062,0.6871194003550933,0.0010619019904331,0.0070968595276734,-0.0100967225731593,7.157871688927738e-06,2.4291873908223878e-05,-6.078205252749555e-07,11748,-39.305477,77.157318,-33.733344
0.0076751437376158,-0.4599351028749948,0.6947296643357117,0.0006564638131954,0.0070457953994393,-0.0096936047883371,8.393401564263372e-06,2.853553869261633e-05,-7.600707213388277e-07,11749,-41.237373,78.376992,-35.412759
-0.1817442236833368,-0.3751170796333517,0.7182485984852149,0.0003612854656521,0.0068122646904652,-0.0091975321468378,9.514320533228202e-06,3.234642257836511e-05,-8.491395339957018e-07,11750,-43.563161,79.542661,-37.356676
-0.3701268043915265,-0.3110126220196181,0.7310683713844619,0.0001229225042471,0.006408154997726,-0.0085837116974635,1.05109852824246e-05,3.568494139521792e-05,-8.595734139668295e-07,11751,-46.198385,80.599275,-39.608021
-0.4393491652537213,-0.2828475618052201,0.703405252652973,-0.000112289752687,0.005839106054191,-0.0078223738116549,1.1444874825629118e-05,3.876683234405737e-05,-8.019546087137239e-07,11752,-48.87528,81.512459,-42.012996
-0.4453027824058015,-0.24999851419277,0.6636795816730138,-0.0004502755735605,0.0051299494127465,-0.0068703483806512,1.2303285873526197e-05,4.152567555719278e-05,-6.457472776265362e-07,11753,-51.175887,82.27158,-44.259819
-0.4938251320783656,-0.1483510662493992,0.6228178236023825,-0.0009321021822347,0.0042874743328722,-0.005709700562733,1.3004400817858351e-05,4.368185319964031e-05,-3.8742283589917145e-07,11754,-53.013272,82.904962,-46.164344
-0.6254556712900299,0.0029137150670487,0.5705988623845248,-0.0015206499085057,0.003294684748378,-0.0043518110832168,1.3525206718603755e-05,4.522572923673664e-05,-1.1959026239985273e-07,11755,-54.474024,83.399526,-47.645542
-0.8138541756316046,0.0967453072497826,0.51955982798153,-0.0021967200655097,0.002148948312763,-0.0028132086253934,1.3895829986529552e-05,4.631058147557439e-05,8.789670886769274e-08,11756,-55.514301,83.757808,-48.58817
-1.0219743417801748,0.092932100807478,0.4703968159419097,-0.0029237395322693,0.0008521664311681,-0.0011297757665806,1.4109721383732977e-05,4.6886942538308535e-05,2.692742126254642e-07,11757,-55.916253,84.013195,-48.801738
-1.2242428991876149,0.094544995841421,0.4356362814453086,-0.0036694859988846,-0.0005757668462312,0.0006643278599871,1.4174704887164903e-05,4.701136214171862e-05,3.8111365216081123e-07,11758,-56.434559,84.194318,-49.119451
-1.3497532473059046,0.1844904234200498,0.3835602599779253,-0.0044136641078709,-0.002088174352103,0.0025354629953662,1.409750803945524e-05,4.679571374769289e-05,3.048643241036994e-07,11759,-58.333302,84.166061,-50.62729
-1.335179004962968,0.3148170658641224,0.1368467626653383,-0.0051067160652496,-0.003619642487023,0.0044237614927385,1.376125769611282e-05,4.583274745662649e-05,6.231691568599881e-08,11760,-60.847436,83.775213,-52.402423
-1.2368260510305988,0.3916267681396629,-0.355111263230349,-0.0056725842520357,-0.0050736247604333,0.0062423417108656,1.3020768146133077e-05,4.356313360759216e-05,-2.467968660065887e-07,11761,-61.325232,83.014891,-51.928613
-1.129748008033752,0.3222668420040264,-0.7898528971826082,-0.0060733664295347,-0.0063911671954478,0.0079407987520142,1.18558824919215e-05,3.990904919123058e-05,-6.028037955319437e-07,11762,-59.231742,81.976363,-48.920972
-1.017667924684393,0.1179608161124775,-0.9021570695453168,-0.0063068686645662,-0.0075529978839216,0.0095040971168247,1.0319126693413363e-05,3.50542315046023e-05,-1.0106510253652531e-06,11763,-56.080624,80.724173,-44.986028
-0.8800358858139833,-0.0788866478853905,-0.8322650871294357,-0.0063779307460392,-0.0085348034966433,0.0109203923379877,8.460886570116363e-06,2.9127812749475828e-05,-1.414779480382834e-06,11764,-53.647799,79.279513,-41.686079
-0.6652661909756792,-0.2016858284146515,-0.8575385524017857,-0.0063173885322905,-0.0093266816695021,0.0121994346687845,6.367713477442854e-06,2.238607953627676e-05,-1.7697788097386357e-06,11765,-52.322067,77.68228,-39.271023
-0.3642643923327008,-0.2890010505325362,-1.0069235261321687,-0.0061373953973581,-0.0099158613937185,0.0133259791441148,4.191028870200504e-06,1.539215010000105e-05,-2.146903728759745e-06,11766,-51.39166,75.970033,-37.239575
-0.0640981212647678,-0.3305157655674929,-1.1227125691880728,-0.0058303335679077,-0.0102845831029279,0.0142561063279508,2.0463770131773703e-06,8.602771362896119e-06,-2.6326221750966457e-06,11767,-50.108518,74.184895,-35.00501
0.1647142891699196,-0.2976137983815368,-1.1178207820353028,-0.0054077001348491,-0.0104363702283044,0.0149538236152574,-9.187116965268136e-08,1.869098156087637e-06,-3.1417714270305617e-06,11768,-48.356132,72.341619,-32.538579
0.3177763614900287,-0.241512607117602,-1.0433852350261978,-0.004891465202234,-0.0103952214790283,0.0153780044236315,-2.2824143270183107e-06,-5.151114833271149e-06,-3.484027606938177e-06,11769,-46.434656,70.463717,-30.087192
0.4544943952718011,-0.2089800134005365,-0.9709299673265216,-0.0043014934032287,-0.0101664051211163,0.0154989203557709,-4.474832385463631e-06,-1.2374292529638071e-05,-3.550583722983663e-06,11770,-44.572006,68.606216,-27.822013
0.6454598848917595,-0.1785430941641703,-0.9095178436285668,-0.0036614496054411,-0.0097398768177752,0.0153034062669412,-6.598934197920504e-06,-1.958769380134383e-05,-3.321203309132572e-06,11771,-42.799206,66.767496,-25.78463
0.8234090919246801,-0.1306277367356754,-0.8442737250092617,-0.003002043871058,-0.0091111795269482,0.0147784597685789,-8.659686057535375e-06,-2.6798744255587308e-05,-2.817465012334594e-06,11772,-41.04648,64.988545,-23.972816
0.8632525303071037,-0.071561038349191,-0.7438176643396934,-0.0023618297409274,-0.0082731677557069,0.0139183901903197,-1.0657917874673814e-05,-3.393989934981596e-05,-2.1331272849494683e-06,11773,-39.423712,63.338636,-22.370501
0.8003573790303592,-0.0250636540540349,-0.5825646051597804,-0.0017630389447046,-0.0072325694561185,0.012724374749176,-1.2523645969760687e-05,-4.0652758565295975e-05,-1.429005944619466e-06,11774,-38.123104,61.867858,-20.991865
0.7462995115642078,0.0003125349056503,-0.4072252310612015,-0.001210051063047,-0.0060142536888077,0.0112055477560776,-1.4157821640618603e-05,-4.6487360353902057e-05,-8.622505665641281e-07,11775,-37.165042,60.594635,-19.861253
0.7246627218741566,0.0308398401548583,-0.2737349596253489,-0.0007011928548182,-0.0046503308047024,0.00938889159907,-1.5538158798355615e-05,-5.1332182420530405e-05,-4.849381742170947e-07,11776,-36.4279,59.54956,-18.924797
0.6543058832100899,0.0678307937250145,-0.175958887343275,-0.0002196286913393,-0.0031885257644552,0.007323836947041,-1.6713226382887507e-05,-5.540869056242401e-05,-2.2085266253753483e-07,11777,-35.824294,58.759934,-18.127546
0.437364941340359,0.0890680654656459,-0.0976189951712048,0.0002327203365467,-0.0016547896262535,0.0050444449782781,-1.7626377357785628e-05,-5.857751640973399e-05,-5.295295630901225e-09,11778,-35.3642,58.211375,-17.458523
0.1710933506935015,0.0973743599585021,-0.0407591340555923,0.000633402851844,-5.090641373625259e-05,0.002572061820433,-1.8120102295579298e-05,-6.030753422839915e-05,1.4926808926054041e-07,11779,-35.046637,57.886129,-16.888184
0.0497053071136029,0.1053725961414193,0.0083050384474776,0.0009631344057864,0.0016209444332531,-5.8949852938762135e-05,-1.8118403953407066e-05,-6.036102499336674e-05,2.516542406425766e-07,11780,-34.727527,57.810097,-16.414077
0.0593211218610494,0.1155169547403585,0.0707533397510585,0.0011960537731559,0.0033699038085855,-0.0028076913813319,-1.7583640091551937e-05,-5.864183614713465e-05,3.27637041001456e-07,11781,-34.460608,58.04243,-16.173979
0.0888375000688508,0.1258430767596169,0.130649916372324,0.0013193266617935,0.0051644382638154,-0.0055926835680186,-1.6414445566315088e-05,-5.481999587352368e-05,3.811708715357902e-07,11782,-34.380626,58.787644,-16.451101
0.009436208321664,0.1350037170792908,0.1587190626243613,0.0013368992058339,0.0069239308575065,-0.0082797014409935,-1.4603366991659447e-05,-4.889823686992734e-05,4.545449975722686e-07,11783,-34.707802,60.07602,-17.290807
-0.3498693593107898,0.1421858902374276,0.1683762383855708,0.0012539573987673,0.0085464636841471,-0.0106904865558486,-1.2391034285050426e-05,-4.167374049837397e-05,5.609851658410448e-07,11784,-35.035712,61.920716,-18.298382
-0.8693287168307726,0.1498866580408466,0.1784693743346225,0.0010845481535411,0.0098850136088407,-0.0125769551432426,-1.0149077737660304e-05,-3.42861842398999e-05,5.902183497992219e-07,11785,-35.385114,64.088103,-19.142639
-1.138802561273431,0.1558126088979397,0.1963215498084515,0.0008881714352646,0.0108627024615349,-0.0138317202116174,-8.156625544753174e-06,-2.7574834558707637e-05,4.311468798653241e-07,11786,-36.16064,66.382215,-19.820652
-0.9267580005905636,0.142371362502936,0.2840281780101826,0.0007791610499636,0.0114805427576731,-0.014503061712653,-6.518376251807484e-06,-2.191765320025396e-05,1.2440350782754073e-07,11787,-37.91826,68.552013,-20.488131
-0.356755390457674,0.1241694673781864,0.4868878503344779,0.000928473016454,0.01174532936227,-0.014683035468257,-5.183203909995953e-06,-1.7265258964638096e-05,-1.7042465476960978e-07,11788,-40.265993,70.455968,-21.184155
0.2146634378468128,0.1296120259733218,0.707093876816436,0.0015919501628616,0.0117075446911515,-0.0145850264677531,-3.913243874754916e-06,-1.2918758579688706e-05,-3.3518752369485145e-07,11789,-42.262186,72.114799,-21.954639
0.4635653230565285,0.0979451846049574,0.8054358847997216,0.0028080568196325,0.0114187570930091,-0.0143138164989513,-2.3775275505602787e-06,-7.815747147076655e-06,-3.2337687820485506e-07,11790,-43.23123,73.668138,-22.785988
0.438918056755379,-0.0272201588485426,0.7811793283684242,0.0043717993741189,0.0109335422199464,-0.0138575950300412,-4.453901161914742e-07,-1.5683297597123428e-06,-7.032667474432929e-08,11791,-43.164138,75.232855,-23.678069
0.4291408456338899,-0.1540465006422527,0.7447132755026722,0.0059794853898014,0.0103345595164801,-0.0132705647120799,1.7083884837373442e-06,5.251590085792439e-06,4.156894248932344e-07,11792,-42.640544,76.761858,-24.742716
0.4838080910207871,-0.1685002571648402,0.7603484593427088,0.0071067717239125,0.0097293276591359,-0.012619349922576,3.835809780173907e-06,1.1963763528089168e-05,9.366129921500276e-07,11793,-42.323381,78.177444,-26.002506
0.48799468838109,-0.0916767520418387,0.7919758292111571,0.0075386059458854,0.0091745421479145,-0.0119445049546407,5.835751398832563e-06,1.83970048477535e-05,1.2655313282801057e-06,11794,-42.56641,79.493661,-27.386505
0.4511311450014473,-0.010991485935126,0.798035923561828,0.0074004506139689,0.0086716535295374,-0.0112770112239534,7.705118693461553e-06,2.456887006012241e-05,1.3698979990936732e-06,11795,-43.482807,80.768421,-28.981423
0.412486642697086,0.0337501125462608,0.8040493058397322,0.0068118201030945,0.0081964611620933,-0.0106175523150154,9.402700213453216e-06,3.0243619500358173e-05,1.3857395536434843e-06,11796,-44.928974,82.013243,-30.863668
0.3800964434632879,0.0446497920461277,0.8188215843115709,0.006050632750296,0.0076691752049165,-0.0099258352062628,1.0880345706224838e-05,3.516281811950921e-05,1.4359570330898338e-06,11797,-46.669365,83.167896,-33.083463
0.359124694371298,0.0466235920404149,0.795883948510806,0.0052560769422461,0.0070522078708151,-0.0091821064895529,1.2157676477473069e-05,3.936779236673932e-05,1.5425025358573655e-06,11798,-49.04419,84.183638,-36.020536
0.2896486642476236,0.062488411697092,0.7343540105758058,0.0043976429063216,0.0063494104375047,-0.0083796786185522,1.3243322643884115e-05,4.290940114589132e-05,1.673415640329136e-06,11799,-52.858371,85.096406,-40.080356
0.1146790389557755,0.0620237623097906,0.673864836117221,0.0035571476691747,0.0055278959476395,-0.0074803519370941,1.4065551740114196e-05,4.555538677472533e-05,1.8186666676064391e-06,11800,-58.224092,85.952159,-45.228468
-0.0844730485033174,0.0595116105192809,0.6305712419260526,0.002856451760318,0.0045368001893221,-0.0064208457293683,1.460592407303282e-05,4.725561607312303e-05,1.964131217989426e-06,11801,-64.940539,86.65456,-51.531856
-0.2413597989597746,0.1793333646493909,0.5992135720956389,0.0023220895936551,0.0033567641973181,-0.0051768055252016,1.5000222482287947e-05,4.852308721302937e-05,2.0382855414581944e-06,11802,-71.180879,87.155627,-57.608605
-0.4073704673707439,0.420445018832648,0.5484364283080236,0.0019048090520003,0.0019942734231067,-0.0037608740694072,1.540469097942591e-05,4.991284946082004e-05,2.0029300480940936e-06,11803,-75.296358,87.400672,-61.869657
-0.5892500790840559,0.5556363415406254,0.4836295557786453,0.0014835104981668,0.000471469803366,-0.0021955759098576,1.5866243039078375e-05,5.153058330723451e-05,1.919989066867344e-06,11804,-75.390974,87.422585,-62.36419
-0.7802433714393308,0.4946372836840232,0.4255198912390099,0.0008185544388719,-0.0011585401956235,-0.0005331546957012,1.6322139965541047e-05,5.310716947911091e-05,1.856483887467752e-06,11805,-71.758328,87.356636,-59.290941
-0.9646000531638526,0.4802771366316948,0.3187693946742312,-0.0001556219062372,-0.0028572720714992,0.001197197055714,1.6638838489826222e-05,5.420864879257842e-05,1.7881934190091364e-06,11806,-67.71002,87.276333,-55.843072
-1.0586559748124889,0.6699117978158514,0.1857936333631821,-0.0013209329811125,-0.0045979994293364,0.0029903028497399,1.6651531157863312e-05,5.432846028772591e-05,1.6537420086596037e-06,11807,-66.775754,87.049557,-55.210692
-1.134034937834194,0.8614256983552243,0.0560332334228911,-0.0025468352868207,-0.0063265806619954,0.0048212186034665,1.6185800809831935e-05,5.285958322079017e-05,1.488067044003602e-06,11808,-68.091451,86.501207,-56.142987
-1.326186556496054,0.8809146641629529,-0.2433808431594172,-0.0035996265323728,-0.0079665355791328,0.0066559722968956,1.5120045486525697e-05,4.9365750841268594e-05,1.342559125228243e-06,11809,-66.800862,85.563037,-53.959217
-1.4365486014377165,0.819126002556779,-0.6947427845040121,-0.0043657707968738,-0.0094617998354814,0.0084670991242428,1.3475812502633547e-05,4.4022080417209214e-05,1.094283880076612e-06,11810,-62.357518,84.317709,-48.519262
-1.2260523379604191,0.7138050467678493,-0.955147244091337,-0.0048722857072438,-0.0107720879953063,0.0102284239512912,1.144284788213375e-05,3.760141992804859e-05,5.639530776464865e-07,11811,-57.340073,82.823011,-42.576376
-0.8245815176805277,0.4777065029943712,-0.953739236750007,-0.0051082904959922,-0.0118523269577776,0.0119133345977489,9.272031141434988e-06,3.0923964627722015e-05,-2.275866299051908e-07,11812,-54.118852,81.082027,-38.290328
-0.4074757115148451,0.1857822146761019,-0.9505183288865606,-0.0050890587051195,-0.0126616316306396,0.0134967267325444,7.062790151788279e-06,2.417886752850563e-05,-1.0910713222083618e-06,11813,-52.788952,79.124485,-35.726329
0.0125558247156671,-0.0078021872704317,-1.0269527667550475,-0.0048333896853624,-0.0131785230837616,0.0149316923726091,4.7284305839755245e-06,1.696627201178793e-05,-1.872564512725665e-06,11814,-51.588788,77.001261,-33.498191
0.4715988193325131,-0.1153430171651613,-1.0870389776028846,-0.0043507578817645,-0.0134038594954653,0.016145451426894,2.169717084836724e-06,8.862872646264937e-06,-2.4406357552099187e-06,11815,-49.373915,74.772301,-30.689282
0.9425427779688976,-0.2045243967155643,-1.0997788420768264,-0.0037083169490734,-0.0133651296504032,0.0170467110649431,-6.515901243615152e-07,-4.040486040824526e-07,-2.5995231645590604e-06,11816,-46.403295,72.473981,-27.426545
1.232024765305314,-0.2806123719422646,-1.0638709855024628,-0.0030322281309713,-0.0131285718333902,0.0175127703078614,-3.7018754876977343e-06,-1.0737668561312882e-05,-2.331034768167559e-06,11817,-43.585559,70.134395,-24.283592
1.2602788884201992,-0.3491243348808683,-1.003506757185153,-0.0023741720614396,-0.0127200700946929,0.0174761465024619,-6.840940097499524e-06,-2.145095259205068e-05,-1.9307363003669423e-06,11818,-41.479043,67.803159,-21.570403
1.2414007704652363,-0.3816330207104098,-0.9522734868588816,-0.0017162725545355,-0.012125677490366,0.0169299965396934,-9.870175014447544e-06,-3.171713549327255e-05,-1.6252876766113383e-06,11819,-40.092351,65.534636,-19.458169
1.286010441223356,-0.3249807341552342,-0.8927475111189649,-0.0010379783777675,-0.0113425134941338,0.0158790856496737,-1.2605005417709135e-05,-4.0963518572031054e-05,-1.3694942390232698e-06,11820,-39.093651,63.424553,-17.893505
1.2688761961606794,-0.2248284352415935,-0.8165453137816414,-0.000279672590646,-0.0103590448737912,0.0143698186955475,-1.492566092666166e-05,-4.882784898867637e-05,-1.1210380332466418e-06,11821,-38.253803,61.531939,-16.751519
1.171990813258776,-0.1649661638197754,-0.7365718361411575,0.0005628862322469,-0.009178673686059,0.0124432695431817,-1.6801770239130544e-05,-5.514628239712031e-05,-9.620678376234929e-07,11822,-37.488815,59.848406,-15.989287
1.0908969674665838,-0.1588953386456678,-0.6695334124421608,0.0014289695166149,-0.0078261272120936,0.0101378192100532,-1.826669330969678e-05,-6.003188457502325e-05,-8.883251931499202e-07,11823,-36.764837,58.404119,-15.48503
1.0322179549542032,-0.1672384062140217,-0.5956727583917464,0.0022632858512802,-0.0063231684923091,0.0075462995809159,-1.937192769207784e-05,-6.378787046998959e-05,-7.280395737254024e-07,11824,-36.083501,57.256954,-15.151163
0.93243335339576,-0.1424978924947078,-0.4360603707780006,0.0029860028766046,-0.0046975202522111,0.004816795920354,-2.0109753344051115e-05,-6.64542082404982e-05,-4.013253292161448e-07,11825,-35.513867,56.437532,-14.901458
0.7082396518860155,-0.0963194321153767,-0.2013416432810019,0.0035587298183699,-0.0029757050362418,0.0020454054669702,-2.0427779127080723e-05,-6.776262462450798e-05,-4.2067876202829137e-08,11826,-35.083488,55.972497,-14.764808
0.3970871318876084,-0.0746143419135359,-0.0245498933849705,0.0039953575572574,-0.0011812887156712,-0.0007166552428094,-2.0318224572875715e-05,-6.759480563172484e-05,2.207355109763558e-07,11827,-34.837058,55.89314,-14.778866
0.1585022363762636,-0.0515538578017191,0.0442538879576644,0.00430986668892,0.0006530544224669,-0.0034033418516702,-1.973088477363786e-05,-6.576090777176427e-05,3.559837251685385e-07,11828,-34.823715,56.240361,-14.992057
-0.0226324781859699,0.0074325289724585,0.0964772640344274,0.0045402225682639,0.0024862673017797,-0.0059576400928503,-1.8530985322418444e-05,-6.179522607460686e-05,3.4343407550060485e-07,11829,-35.083564,57.070986,-15.528475
-0.3081948112490933,0.041219063172847,0.1798398766885243,0.0047239992725712,0.004263645097468,-0.0083021874287947,-1.6699536173165037e-05,-5.562005300084068e-05,1.712221285472032e-07,11830,-35.818947,58.403395,-16.591454
-0.6605094676054029,0.0404613150906149,0.2598699271733253,0.0048977010853974,0.0059110000836125,-0.0103312640182389,-1.4429731573443231e-05,-4.790777130606387e-05,-1.0766107836976755e-07,11831,-36.887003,60.113097,-17.978435
-0.866762440481526,0.0427930348617287,0.3554147028675314,0.0051344505544199,0.0073317980577202,-0.0119388221179605,-1.2017866308208372e-05,-3.971254082303906e-05,-3.895093138678251e-07,11832,-37.773374,62.059792,-19.289678
-0.8704345650778489,-0.0385224699970584,0.4726703865134701,0.005545400160297,0.0083976240481929,-0.013006453347742,-9.760670599622747e-06,-3.20843996395066e-05,-5.897969131843851e-07,11833,-38.402161,64.04224,-20.292465
-0.7935683785058327,-0.2026532283201286,0.5493562718079016,0.0061752291983529,0.009050259175545,-0.0135051321540543,-7.877046524735088e-06,-2.580466963984556e-05,-6.453304555523259e-07,11834,-39.132997,65.964905,-21.099623
-0.6833560529216444,-0.3215454044465117,0.6169753136356066,0.0070006971551477,0.0093090174547093,-0.013514014471782,-6.372800259294995e-06,-2.093236230621286e-05,-5.03815209782373e-07,11835,-40.342757,67.696676,-21.890251
-0.4739215830526297,-0.3344255470074846,0.7344907315862884,0.0079795824322808,0.0092196714240449,-0.0131790045261786,-4.984724635082101e-06,-1.6600024540130477e-05,-1.4730494467101933e-07,11836,-41.571689,69.131109,-22.726491
-0.1393821786776132,-0.1384929512019763,0.8150900559437603,0.0090156338749696,0.0088933454071356,-0.0127664640833759,-3.3935136841492327e-06,-1.1754218865214102e-05,4.402174946806067e-07,11837,-41.757248,70.398822,-23.418756
0.2732851218718641,0.2398965692766487,0.8563978902269681,0.0100027328262725,0.0083974771971903,-0.0124008127065239,-1.4613864429954643e-06,-5.930838213249706e-06,1.252657038584529e-06,11838,-40.635363,71.676885,-23.84649
0.6670038685385509,0.4817717878349155,1.0241575101031055,0.0108163556004448,0.0077554907944139,-0.0120566738762741,7.988688928185234e-07,9.485829314550576e-07,2.130635897862412e-06,11839,-38.638285,72.953419,-24.106623
0.9006237032573938,0.4801805123406946,1.2542738969736564,0.0112893315838134,0.0070394391392002,-0.0117331604469656,3.2681203826141558e-06,8.68671884331064e-06,2.8042571781955573e-06,11840,-36.656755,74.113887,-24.514928
0.9141440370244114,0.4732784243553458,1.3108292687460552,0.0112087776749582,0.006350319271718,-0.0113810680561357,5.676362373151658e-06,1.6472278024790033e-05,3.144470770987421e-06,11841,-35.335775,75.203516,-25.210089
0.8131592082105906,0.5246314103340081,1.2212953437363727,0.0105178082679951,0.0057352491907023,-0.0109786794722177,7.797124118460162e-06,2.350779699639288e-05,3.202150439633739e-06,11842,-35.127907,76.287024,-26.327753
0.733529214321181,0.5420638114901184,1.148057261735043,0.0093373718199119,0.0051923038716334,-0.0105451354935761,9.65066655038829e-06,2.9830827214868816e-05,3.023452400707088e-06,11843,-36.028003,77.380238,-27.958728
0.6913117227226997,0.558216576123068,1.093592434057749,0.0078777582335099,0.0046944536543231,-0.0100427436137869,1.1335902091450932e-05,3.5764364287967107e-05,2.625774476518483e-06,11844,-37.792088,78.468538,-30.151944
0.570270685027268,0.5591418920051981,1.008507565651549,0.0065282042134605,0.0041620922663251,-0.0093911379861159,1.2851106437047789e-05,4.12330788484873e-05,2.100177072321175e-06,11845,-40.166834,79.527155,-32.816619
0.3014350337290109,0.5047956063612022,0.9265450320264256,0.0054405025951687,0.0035644315615762,-0.0085568599729758,1.4175276407454395e-05,4.606814436791562e-05,1.5691529813233e-06,11846,-42.915721,80.454667,-35.866201
0.0545971209678656,0.4529468239416747,0.866106204816469,0.0045094545022291,0.0029203323426827,-0.0075430379735902,1.533923749613716e-05,5.033571445592251e-05,1.0743370294161344e-06,11847,-45.861695,81.232869,-39.095664
-0.0787893262409609,0.4152058364467617,0.751040116618331,0.0036443712358926,0.0022242487403447,-0.0063534351299913,1.6327298952779898e-05,5.396978415804996e-05,6.321690355540081e-07,11848,-49.177562,81.773321,-42.557738
-0.3323802218030902,0.3723444173135197,0.5404911962266358,0.0026445599475661,0.0014696471791458,-0.0050133444737763,1.703854477613802e-05,5.658528038962831e-05,3.099889203957834e-07,11849,-52.117213,82.087812,-45.580951
-0.7017293551380924,0.333851994457351,0.3416340076712744,0.0014225169441155,0.0006562273825231,-0.0035305254739286,1.7443525427029877e-05,5.807623881778677e-05,1.1950940948851118e-07,11850,-54.209298,82.220906,-47.687734
-0.8565038496328088,0.2938189706395266,0.2353638516245035,3.195040379104421e-05,-0.0002167639105865,-0.0018928996192055,1.7622556963589007e-05,5.8791442714348864e-05,-4.9600305890568246e-08,11851,-54.965138,82.197508,-48.488615
-0.8665718504574736,0.2655473551479034,0.1528430506619217,-0.0015390664767756,-0.001136887438584,-0.0001037824407532,1.7598464934524965e-05,5.888211257668316e-05,-2.972340384791821e-07,11852,-54.749751,82.113202,-48.420269
-1.0677624629795677,0.2759250673242497,0.0603232096595357,-0.0033071772116719,-0.0020763380690278,0.0018265236501139,1.7301733856471037e-05,5.810234155903099e-05,-6.018561110680049e-07,11853,-54.376884,81.907417,-48.117606
-1.376360785393477,0.2941840176697777,-0.0674047137191292,-0.0052274184775414,-0.0030126760647917,0.0038662286764532,1.6660638819738007e-05,5.61581891511164e-05,-8.913897543082486e-07,11854,-54.377599,81.492739,-47.880426
-1.540169864528983,0.2766433660372677,-0.3533805769278364,-0.0072041872179861,-0.0039249273969429,0.0059523852757152,1.5607269241153876e-05,5.278008313264807e-05,-1.1098517122018724e-06,11855,-53.999603,80.819362,-46.832318
-1.55205774398233,0.2443940666091178,-0.7365433155471994,-0.0090655673255807,-0.0047787545923875,0.0079963127670042,1.4108360369974565e-05,4.785221223421232e-05,-1.2445199717526464e-06,11856,-52.50074,79.93634,-44.425598
-1.3372641356860415,0.1919451587798749,-0.941277742288913,-0.0105313550799622,-0.0055273260169722,0.0098688537374819,1.2240534984450349e-05,4.17215288809117e-05,-1.4054895155041664e-06,11857,-50.589194,78.93614,-41.419715
-0.8199695965753975,0.0370145092019748,-0.9139728830649936,-0.0114740786532117,-0.0061436268193035,0.0114968142300761,1.0120809401212422e-05,3.4863572633856966e-05,-1.7031938145890446e-06,11858,-49.521605,77.838467,-38.854177
-0.3064985111836012,-0.2407957330492424,-0.9066405435250736,-0.0119237588525399,-0.0066203690478954,0.0128665409177585,7.81869690347987e-06,2.745317911511552e-05,-2.069996057840788e-06,11859,-49.427467,76.625407,-36.863088
-0.0373509753358502,-0.5497829074235783,-1.0761256636414935,-0.0119195861457149,-0.0069547808465575,0.0139651764064295,5.373942781767402e-06,1.953787065249561e-05,-2.394058535642885e-06,11860,-49.536179,75.264087,-35.045121
0.2213465686098307,-0.7753853770652457,-1.2937150114011589,-0.0115887126625681,-0.0071589115937554,0.014810111843952,2.780449606685584e-06,1.1061562579842955e-05,-2.6140688958937706e-06,11861,-48.801775,73.767652,-32.803666
0.6650881014684934,-0.853545242712288,-1.3799016871105307,-0.0109956894420788,-0.0072351365399372,0.0153862382337025,-4.129637661866113e-09,1.7967184406270852e-06,-2.6072045312803707e-06,11862,-47.001118,72.154379,-29.953009
1.073659992175907,-0.8154430690131573,-1.3325715049008815,-0.010133140667869,-0.0071758389320028,0.0156397216255594,-2.970409700595592e-06,-8.322953532461515e-06,-2.2523554813036007e-06,11863,-44.703146,70.458819,-26.846717
1.221518081369234,-0.7583098441445721,-1.2564190940347988,-0.0090647331011064,-0.0069851807050592,0.0155317873196567,-5.988292736315971e-06,-1.878460154815932e-05,-1.6582853936425303e-06,11864,-42.655184,68.736804,-23.96154
1.1786649450824287,-0.7244031353093507,-1.1866794299736585,-0.0078949406349329,-0.0066747930054655,0.0150215540629961,-8.827599334706388e-06,-2.857547589905465e-05,-1.1431503077054382e-06,11865,-41.043079,67.018136,-21.48041
1.0892275278400927,-0.6808222779562827,-1.108362972464621,-0.0066750503994839,-0.0062493225439394,0.0140881792308395,-1.1323663688655925e-05,-3.70220785297648e-05,-8.778531569877056e-07,11866,-39.772874,65.342333,-19.477287
1.0075588134834197,-0.6268060933969243,-1.033282612772723,-0.005416283511962,-0.0057088936899861,0.0127402896243816,-1.34553001147221e-05,-4.417425232097248e-05,-7.241263254360293e-07,11867,-38.725311,63.814374,-17.947123
0.949339957172836,-0.5832874916301651,-0.9560352329795512,-0.0041152297022043,-0.0050540921047921,0.010996858553953,-1.5200492266826918e-05,-5.006909398461359e-05,-5.464611330183551e-07,11868,-37.939533,62.521491,-16.797605
0.8970952899485696,-0.5326824377552581,-0.8418524063324093,-0.0027295628599615,-0.0042830726366,0.008900366795687,-1.6489076069690173e-05,-5.44179083179313e-05,-4.1292210173143605e-07,11869,-37.385979,61.507184,-16.002936
0.6977774740877027,-0.46199829083562,-0.6975590454048628,-0.0012684237847066,-0.0034075079445781,0.0065224181728562,-1.7303834090536047e-05,-5.710829279872743e-05,-3.972460773687962e-07,11870,-37.074348,60.772311,-15.569343
0.2375251930343988,-0.3920627815165262,-0.5679186373068427,0.0002033895412047,-0.0024552209804372,0.0039723837430387,-1.770081901312541e-05,-5.8369814340020285e-05,-4.518003126841351e-07,11871,-37.076431,60.315961,-15.549529
-0.2418455191236801,-0.3593335086602686,-0.4318680955515119,0.0016255573822912,-0.0014631336679885,0.0014198875116548,-1.7730336817482855e-05,-5.8420225668598107e-05,-5.113244678857702e-07,11872,-37.224296,60.131191,-15.768734
-0.4224296058621536,-0.3501714307489868,-0.2448065624812415,0.0029157340746246,-0.0004851759804536,-0.0008852941546697,-1.737580192787449e-05,-5.71883284792401e-05,-5.915971738712147e-07,11873,-37.297912,60.212379,-16.076038
-0.3526151936457959,-0.3043001631957441,-0.0607564083492518,0.0040254506525373,0.0004439303081028,-0.002816115643373,-1.6615455810958492e-05,-5.456653448663133e-05,-7.377555016520225e-07,11874,-37.371611,60.53336,-16.523761
-0.3246458586027808,-0.2320531599639016,0.0786442412247064,0.0049487442670797,0.001309770562691,-0.0043740261465317,-1.548689953614623e-05,-5.073909439609301e-05,-8.711919296208746e-07,11875,-37.651277,61.151154,-17.270549
-0.499787500194027,-0.1840382636528459,0.2341434976341568,0.0056769836896416,0.0020936466407906,-0.0055773648086219,-1.403824039599868e-05,-4.599982469482699e-05,-8.104335457252217e-07,11876,-38.17865,62.051864,-18.308899
-0.7337139141027675,-0.2185662676771801,0.4050172649062669,0.0062181675343231,0.002782418570113,-0.0065260588151104,-1.2362041834713324e-05,-4.069645996960229e-05,-4.958764334720551e-07,11877,-38.452187,63.173855,-19.313235
-0.8183003362234655,-0.3962869727182048,0.5069019515906543,0.0065780750823499,0.0033699118584325,-0.0072738009454561,-1.0690876362185771e-05,-3.550422062898311e-05,-5.2425411454085e-08,11878,-38.151082,64.258072,-20.02414
-0.7661895315790355,-0.6157712756044968,0.5510903412813086,0.0067584256135894,0.0038569710783497,-0.007824564279387,-9.260022224862771e-06,-3.112393445671396e-05,4.1149222587796454e-07,11879,-37.321983,65.236261,-20.377302
-0.5728509517028331,-0.7219510422430095,0.6053019037786356,0.0067854803535915,0.0042612290622853,-0.0082568494812006,-8.054199603117893e-06,-2.750721394894909e-05,8.953595213356762e-07,11880,-36.728628,66.116996,-20.571392
-0.1204935988550757,-0.6859690938214713,0.6676817553907564,0.0067096267776195,0.0046215524600848,-0.0087034350309021,-6.815513995369633e-06,-2.375329729519513e-05,1.3439675252797602e-06,11881,-36.73859,66.949617,-20.87264
0.404522634672639,-0.4631499920753116,0.7222521329561373,0.006551400808847,0.0049557170907014,-0.0092171615996239,-5.284272310695958e-06,-1.8895231336584672e-05,1.629008232318261e-06,11882,-36.991567,67.781626,-21.482982
0.6660113755564754,-0.0872380357356338,0.7778307715285447,0.0063036009584121,0.0052617084312181,-0.0097793698983366,-3.3481321079933417e-06,-1.2541138573061413e-05,1.728732868356032e-06,11883,-36.93031,68.737764,-22.413513
0.7051086379208564,0.17085868987812,0.8260536735724195,0.0059582242057721,0.0055436627135743,-0.010350669980837,-1.0323458746887005e-06,-4.840880856376495e-06,1.7239824363439218e-06,11884,-36.482815,69.899621,-23.575515
0.7123034815677659,0.1597509576049607,0.8397490646674167,0.0054918389442511,0.0058018495688366,-0.0108315195371722,1.4937903413850527e-06,3.607106182470724e-06,1.659495891330865e-06,11885,-36.201675,71.225966,-24.954191
0.6873292605560553,0.0785220548488107,0.823568793568385,0.0049064135237841,0.0060308494452427,-0.0111714421195672,3.932225697138812e-06,1.1837646127935534e-05,1.501679724634448e-06,11886,-36.795308,72.644487,-26.639784
0.6238160323625987,0.1023692732892558,0.8068513988294153,0.004233837773413,0.0062201893390606,-0.0113709307842988,6.0567709201905855e-06,1.912961698633937e-05,1.2044006371017405e-06,11887,-38.443694,74.067791,-28.722947
0.5782950670358208,0.1922254538466313,0.7880856260389122,0.0035070633477924,0.0063458485456266,-0.0113933202621176,7.901659769789601e-06,2.557192546947911e-05,7.986020455808681e-07,11888,-40.845071,75.453993,-31.245978
0.5425523998130348,0.3008108796056808,0.7727457564419277,0.0027740503860298,0.0063667626776841,-0.0111878324998395,9.627535767465188e-06,3.163182328925042e-05,3.7828060403698187e-07,11889,-43.60365,76.767214,-34.112486
0.4739706021615493,0.4154478720829885,0.7915643046192004,0.0020597904787283,0.0062646767934525,-0.0107306417892692,1.1274684744160273e-05,3.739330218383729e-05,1.3986594805764934e-08,11890,-46.3039,77.958462,-37.043518
0.3596731078710468,0.5150350668971619,0.8249230455113765,0.0013616797796667,0.0060441843836238,-0.0100180418436163,1.2780654994734287e-05,4.263868134964528e-05,-2.805547011998785e-07,11891,-48.716283,78.993952,-39.840953
0.2446288619703558,0.5590135043464057,0.8071769661999135,0.0006777033911262,0.0057105672391285,-0.0090638819834655,1.4095489017740318e-05,4.718648710970852e-05,-4.911636459546936e-07,11892,-50.793578,79.859968,-42.321488
0.1733179295940279,0.5350990286810251,0.7374251954196049,-6.4204237033560745e-06,0.0052813494368565,-0.0079123708528121,1.5145774116931196e-05,5.074394013009352e-05,-5.646960031442659e-07,11893,-52.671506,80.586463,-44.444971
0.0599441512753718,0.509921234256961,0.6864678155244425,-0.0007002346269624,0.0047598597930194,-0.0065911171423552,1.582660763618992e-05,5.296172037704192e-05,-5.032104489147004e-07,11894,-54.279087,81.194091,-46.092309
-0.1529350382280432,0.5050366939744504,0.6633390753676894,-0.0014071597923759,0.00413268716825,-0.0051142939118337,1.6108906046844548e-05,5.3799383713892655e-05,-3.717992339037532e-07,11895,-55.525816,81.669349,-47.255631
-0.3857222259780349,0.487760101502783,0.6267136353477142,-0.0021452176566877,0.0033912588907734,-0.0035199505099436,1.6088937069282883e-05,5.357614928626108e-05,-1.6238195100606678e-07,11896,-56.222981,82.01057,-47.73086
-0.6146283096332464,0.4548303557467745,0.563148778719988,-0.0029450048851381,0.0025242947233724,-0.0018638433364541,1.5897036598361996e-05,5.270158081063492e-05,1.5315405028393653e-07,11897,-56.014976,82.220978,-47.202233
-0.808736766909383,0.42474912754775,0.4504772228182996,-0.003810223239237,0.001529864668529,-0.0001762559452003,1.558162106997467e-05,5.1414259760438846e-05,4.67760845915007e-07,11898,-54.927019,82.387757,-45.84443
-0.9315635438542084,0.4446724602492196,0.3307872789402873,-0.004717102924615,0.000419040339451,0.0015355842308622,1.509884832029858e-05,4.9679349101084815e-05,6.338218397862019e-07,11899,-54.019165,82.516733,-44.670126
-1.1341498801691363,0.5077087678727611,0.2392417280204924,-0.0056299637938535,-0.0007941068210094,0.0032702515798226,1.43326058799737e-05,4.710293301181618e-05,6.550507633143052e-07,11900,-54.261523,82.527167,-44.341867
-1.49293034993198,0.5376132809498555,0.0058854116864567,-0.0064868380833578,-0.002086655238989,0.0050447731849842,1.3154739072468024e-05,4.3204189006206345e-05,5.959238306492338e-07,11901,-55.073862,82.244903,-44.049595
-1.695541606679619,0.5076397627699567,-0.4134325946369998,-0.0072231532147013,-0.0034255341257003,0.0068550772547112,1.157509812797129e-05,3.808113224524556e-05,3.786501120040117e-07,11902,-54.812635,81.647237,-42.36242
-1.4084115963797696,0.416256053071883,-0.7279362659726579,-0.007767177544628,-0.0047647263704949,0.008674023238386,9.738033527725596e-06,3.230074106224796e-05,-9.554193582372497e-08,11903,-53.508471,80.798728,-39.49857
-0.8132668588671591,0.2665237708415637,-0.8178179885388576,-0.0080088990460155,-0.006035978211372,0.0104803495826197,7.754856590355934e-06,2.6155404489710755e-05,-7.205361994661363e-07,11904,-52.232002,79.741821,-36.69282
-0.3604671301425026,0.1263928289749715,-0.8668101944094844,-0.0077955354640922,-0.0071418565113949,0.0122479222722724,5.6649636508464434e-06,1.9606137470075547e-05,-1.2737628484758471e-06,11905,-51.661253,78.454616,-34.665338
-0.1373543198672726,0.0455303507004107,-0.9376041917995056,-0.0071061394458837,-0.008025913118485,0.0139259006637387,3.503198178459204e-06,1.267046501238469e-05,-1.6184229236919182e-06,11906,-50.94795,76.907116,-32.836866
0.1819848499275246,-0.0322333205884902,-0.9793687365831936,-0.0060661268662589,-0.008673905336089,0.0154357782745178,1.283615264346853e-06,5.35524853861837e-06,-1.691521396671828e-06,11907,-48.772168,75.105706,-30.160516
0.7325913571005758,-0.1556506015518801,-1.0156345774077502,-0.0048754837207984,-0.0090743258968342,0.0166659004944134,-1.0463644653325473e-06,-2.55444311488824e-06,-1.4356957422580283e-06,11908,-45.234204,73.09201,-26.668826
1.1592463544065037,-0.2822074382985174,-1.031080466513493,-0.003883171220507,-0.0092396791464164,0.017456523533618,-3.535865390215305e-06,-1.1177558700312824e-05,-9.114443954135668e-07,11909,-41.464343,70.921978,-23.057972
1.2259886556986477,-0.3398292543028339,-1.011683711465164,-0.0032201658525902,-0.009175200141544,0.0177208611936925,-6.1210740035221005e-06,-2.0132428093955057e-05,-3.4857953408245645e-07,11910,-38.372278,68.68457,-19.877038
1.125947796226249,-0.2962122412896121,-1.0007352373810332,-0.0027793121308416,-0.0088784554750078,0.0174491193202079,-8.64883516640023e-06,-2.876509485286941e-05,5.1590184980002575e-08,11911,-36.266333,66.471302,-17.340911
1.0430837154601864,-0.208552435837687,-0.972821129563696,-0.0024457314900697,-0.0083758160423901,0.0166398973801881,-1.1012426534559275e-05,-3.67237089732724e-05,2.810539937791074e-07,11912,-34.946145,64.362579,-15.447301
0.9818042040559846,-0.1506196311777392,-0.906711637665474,-0.0019808805307044,-0.0077202460808732,0.0153386319838207,-1.319667815788104e-05,-4.404749005490533e-05,4.510250886536151e-07,11913,-34.1111,62.40841,-14.118657
0.9164113932237408,-0.121019276110186,-0.8428661529360338,-0.0013055199364194,-0.006934090727861,0.0135745198787522,-1.5127049886040309e-05,-5.051588775076143e-05,5.976474417049847e-07,11914,-33.511071,60.689877,-13.201377
0.8591947631900612,-0.1032855683744484,-0.7891782754102392,-0.0005299617215967,-0.0060123764703602,0.0113600845650984,-1.6600013824331345e-05,-5.5392892572213176e-05,6.445371502489961e-07,11915,-33.068518,59.277876,-12.585261
0.8041734487675021,-0.1009579547347961,-0.7358698919889763,0.0002697588069534,-0.004950985697941,0.008760906953927,-1.750701015207646e-05,-5.831434542665628e-05,5.84091317571915e-07,11916,-32.822681,58.172366,-12.253687
0.6932137308094823,-0.1071378389622678,-0.6700732496711823,0.000965352374602,-0.0037320326570311,0.0058901110023561,-1.799338220276896e-05,-5.985945551599297e-05,5.354847837065089e-07,11917,-32.717962,57.388707,-12.173542
0.5428178433924509,-0.1095982469083442,-0.5451777128016311,0.0015059327251955,-0.0023709531106866,0.0028522783021796,-1.823321910487711e-05,-6.065735607935625e-05,5.60930577008125e-07,11918,-32.684568,56.932001,-12.288227
0.4413565857080098,-0.1122867034371511,-0.3564253271179038,0.0019467569632173,-0.0009230715424868,-0.0002408463900866,-1.81675685225438e-05,-6.045640454533536e-05,5.853485532916131e-07,11919,-32.686507,56.812001,-12.529854
0.3169575659463524,-0.1106098901938409,-0.1903046583459161,0.0023240073796446,0.0005456913334268,-0.0032324551491055,-1.7642340514439106e-05,-5.8691254096215895e-05,5.343370166796191e-07,11920,-32.76572,57.042488,-12.887353
0.051922195570125,-0.0950819664865422,-0.0788177261747914,0.0027006159841276,0.0019398778566875,-0.0059187287284349,-1.6620149757725894e-05,-5.523441513984467e-05,4.007830213355988e-07,11921,-33.079446,57.601783,-13.473052
-0.2200827946661426,-0.0904504462319251,0.062395113347253,0.0031049712832362,0.0031973217063167,-0.0081748746487312,-1.5103218148893194e-05,-5.009188265626196e-05,1.8705225937802415e-07,11922,-33.653009,58.614485,-14.473983
-0.4017114684442153,-0.0853985499426868,0.2336313285801199,0.0035157237003491,0.0042928835053341,-0.0099578071742903,-1.3119342495042216e-05,-4.336083066904759e-05,-9.118729112141245e-08,11923,-34.639776,60.052206,-15.938196
-0.6418443450841829,-0.0717986955284991,0.3086754361929854,0.0039273261962829,0.0051919807678644,-0.0112443260517899,-1.0870398837805971e-05,-3.5754626045267124e-05,-3.678892750181416e-07,11924,-35.724854,61.778665,-17.584843
-0.9383730758202048,-0.1399430544752259,0.2920846439416287,0.0043291280428151,0.005868031193555,-0.0120732594138365,-8.724556794041408e-06,-2.8557885748547222e-05,-5.527507560639045e-07,11925,-36.598243,63.563704,-19.053233
-1.0613360836248384,-0.2920176449058149,0.3459412143603702,0.0047281604158399,0.0063125525826018,-0.012485560310915,-6.985857555414479e-06,-2.27846748088014e-05,-6.27070419174154e-07,11926,-37.32712,65.27716,-20.194515
-0.880066531048065,-0.3911374835197387,0.4951673127679898,0.0051588567467692,0.0065356664342917,-0.0125317465503323,-5.6710972382672365e-06,-1.843477850130649e-05,-6.520952807651762e-07,11927,-38.473703,66.714109,-21.240844
-0.4962477677837232,-0.3784686983771783,0.603927622666744,0.0056582767455068,0.0065806657077955,-0.0123522179034595,-4.5671911425612046e-06,-1.4813876394668474e-05,-6.128457601855656e-07,11928,-39.669737,67.875282,-22.141536
-0.1462669572316038,-0.2786278230730797,0.6386847482116389,0.0062778100958982,0.0065350535404222,-0.0121850889922517,-3.409707508126344e-06,-1.1139795312768302e-05,-3.9470577283276646e-07,11929,-40.181016,68.897318,-22.873952
0.0922979773681916,-0.1273328916462404,0.6764114048940648,0.0070017146617138,0.006444079489461,-0.0121312441916116,-2.00594087838174e-06,-6.835402153986644e-06,8.051331419299549e-08,11930,-39.703266,69.906929,-23.472071
0.3628442495175773,-0.0330858470629644,0.7232237720089456,0.0077336823242088,0.0063131582910045,-0.012155535282834,-3.443640845001342e-07,-1.837494741588594e-06,7.788462887581869e-07,11931,-38.472811,70.947883,-24.03607
0.642898291493518,-0.0682547283389268,0.7317488385230639,0.008334526918242,0.006162720040397,-0.0122083252998428,1.4822376735464287e-06,3.6781749544634255e-06,1.5188514655493042e-06,11932,-37.106865,72.007264,-24.686682
0.7263343540355397,-0.1018972474657786,0.7139191857931373,0.008582428077771,0.006008220713723,-0.0121553989360699,3.4004066836983997e-06,9.657555846731292e-06,2.044395074107181e-06,11933,-36.312378,73.086213,-25.579545
0.6410900908837521,-0.0136910879271474,0.7139894390966056,0.0083966021723401,0.0058548700113226,-0.0119446653122639,5.309780863220735e-06,1.5890914471744072e-05,2.1991307607862067e-06,11934,-36.391351,74.174872,-26.731601
0.579006920455537,0.1247241319866284,0.7462927804699415,0.0078525324467039,0.0057000342052938,-0.0116170453272808,7.099343078343694e-06,2.198038027811036e-05,2.03129030789823e-06,11935,-37.180665,75.280498,-28.189421
0.5500736249761604,0.2377073779706972,0.8100058587294698,0.0070495744418207,0.0055182708249755,-0.0111680180710644,8.742261570330681e-06,2.768186657246117e-05,1.7396325875780746e-06,11936,-38.291871,76.365277,-29.915802
0.4625183760934158,0.3146413819692024,0.8878098075727754,0.0061876117392274,0.0052554169321598,-0.0105892481019197,1.0273337206660772e-05,3.299068296675747e-05,1.4719714705675173e-06,11937,-39.526376,77.384285,-31.888518
0.3284100488033855,0.3405045777431179,0.9300432077599156,0.0053400855623005,0.0048903231241325,-0.0098780959965982,1.1688158991807667e-05,3.788852597457184e-05,1.236020544805804e-06,11938,-40.824383,78.330547,-33.941842
0.2265601203300635,0.3157428119765448,0.9023643326213906,0.0044357570521497,0.0044336891000929,-0.0090231412065765,1.291119752042969e-05,4.214343555903516e-05,1.0110429198068528e-06,11939,-42.318277,79.165152,-36.013095
0.1467199105357003,0.2758854645226888,0.8291211118469958,0.0034277896325234,0.0038921955572277,-0.0080291754943236,1.3874844795327068e-05,4.5505241162881744e-05,8.233557494942297e-07,11940,-44.04882,79.88791,-38.064584
-0.0233610743047329,0.2669880924199058,0.7567517542962287,0.0022263514124768,0.0032846088388178,-0.0069171056259209,1.461321460186138e-05,4.806619924166419e-05,6.945968361129145e-07,11941,-46.039586,80.532162,-40.188798
-0.2878560947109169,0.3033759838703381,0.6953435346077512,0.0008173102857324,0.0026159839751878,-0.0056886583610482,1.5222214206561866e-05,5.019594354702582e-05,5.637283372061604e-07,11942,-48.476979,81.078958,-42.545206
-0.5072355334948806,0.3545312914795349,0.6339064452068475,-0.0007135144197727,0.0018737995892941,-0.0043290595270373,1.571806827052228e-05,5.201827080748034e-05,3.477993194255284e-07,11943,-51.17913,81.449181,-44.995859
-0.6225357174759952,0.3617238001747269,0.5581212426658222,-0.0022829900556552,0.0010522316855391,-0.0028233870414012,1.604147500140251e-05,5.333046908988825e-05,5.06052888220388e-08,11944,-53.199199,81.604503,-46.723304
-0.7109414206014781,0.3301365663511586,0.4524697132019188,-0.003766208943508,0.0001446471015709,-0.0011478214932005,1.6152654410652218e-05,5.396155936648101e-05,-2.9016841663641745e-07,11945,-54.312351,81.655569,-47.605421
-0.8734310045932313,0.3258265554002595,0.3365825039490228,-0.0050964248971677,-0.0008411813357066,0.0007004945280176,1.5991639962825046e-05,5.3710878142576246e-05,-6.790431203569644e-07,11946,-55.599694,81.56346,-48.604727
-1.1169406078171311,0.3193329376044643,0.1420252191731607,-0.0062793770848117,-0.0018776472186721,0.0026994416268969,1.5442797090169658e-05,5.217753588340722e-05,-1.093477875103079e-06,11947,-57.663457,81.236974,-50.07608
-1.3072979576994797,0.2680398533507361,-0.2702639727780784,-0.0073109208367345,-0.0029270988198127,0.0048200837158555,1.4423052018117965e-05,4.8997986752745735e-05,-1.4204683546372716e-06,11948,-59.256888,80.56688,-50.689324
-1.3262335237959302,0.2234182192401989,-0.7646121647357997,-0.0082099513398242,-0.0039325742332197,0.0070147011538372,1.2961680688671708e-05,4.423123979997783e-05,-1.6090201627774056e-06,11949,-58.733014,79.621947,-49.102917
-1.1628341152112451,0.156305922788888,-1.0411119018354833,-0.0089704606059881,-0.0048547412927326,0.0092245944688594,1.1169785647647395e-05,3.837115052198459e-05,-1.8087636201267533e-06,11950,-56.792785,78.549398,-46.072994
-0.8319320672675712,-0.0114129469836493,-1.0729751907653018,-0.0095525020495911,-0.0056725253079684,0.0113758554015987,9.16855666689897e-06,3.195175172221478e-05,-2.170950119576145e-06,11951,-54.977918,77.389369,-42.977492
-0.4351027688539129,-0.1898522364144553,-1.049647049052565,-0.0099317761346032,-0.0063556959467871,0.0133578101043603,7.070609171745709e-06,2.5288990334761716e-05,-2.6096456536297507e-06,11952,-53.861232,76.105739,-40.350401
-0.0800346246521854,-0.2668933952383305,-1.098108619262033,-0.0100854487730976,-0.006873557196484,0.0150145426130437,4.926711317843328e-06,1.8381068339774092e-05,-2.9065427703532872e-06,11953,-52.767266,74.681558,-37.873032
0.3537371174538921,-0.3072287289809731,-1.2160795759473906,-0.0099998190788289,-0.0072083355203932,0.0162580843705011,2.6780029076701675e-06,1.0946436948551077e-05,-2.9535359078909238e-06,11954,-50.786844,73.130701,-34.947223
0.8959098187208486,-0.3758823674628505,-1.2972158366718416,-0.00967792511146,-0.0073548824445235,0.0170704492483281,2.667124418574467e-07,2.802973549035083e-06,-2.761094540421413e-06,11955,-47.972955,71.469481,-31.49249
1.2224670800954476,-0.4278476324793154,-1.25401599170057,-0.009127744690492,-0.0073231210511162,0.0174429140823982,-2.2410742318024467e-06,-5.788609999615671e-06,-2.3830577358154647e-06,11956,-44.976322,69.703688,-27.948314
1.189685258657295,-0.4467799864147602,-1.1545581259134536,-0.0083691196787358,-0.0071453462356466,0.0174115319266955,-4.7231728321054764e-06,-1.4321479582940432e-05,-1.958519835445292e-06,11957,-42.469483,67.897677,-24.718406
1.0622101038697689,-0.4458229978436644,-1.081932708936665,-0.0074335722130162,-0.0068351903399527,0.0169943451646866,-7.1244289539303465e-06,-2.252299258476811e-05,-1.6121041097365275e-06,11958,-40.624669,66.115614,-22.002001
1.002526579363718,-0.4041829969732938,-1.0123467913696595,-0.0063677430631868,-0.0063889273038659,0.0161910648872022,-9.393245721552116e-06,-3.023798137510387e-05,-1.3263984319355424e-06,11959,-39.287319,64.425909,-19.813525
0.9404521461007526,-0.3355472158972057,-0.9374653656110156,-0.0052460320190729,-0.0058136733051518,0.0150493098102683,-1.1400662991655207e-05,-3.709017532481423e-05,-1.0343758099812462e-06,11960,-38.249518,62.865377,-18.125512
0.8724229651798739,-0.2906904711581367,-0.8751044893281752,-0.004178695278708,-0.005118869500223,0.0136580124106272,-1.3044367891636696e-05,-4.276352349539828e-05,-7.063169503707175e-07,11961,-37.380235,61.424782,-16.895933
0.8196776770542034,-0.275075000325815,-0.7889341397469289,-0.0032240603759454,-0.0043076290277568,0.0120602882375309,-1.4297110165905934e-05,-4.715709987240692e-05,-3.599205557169543e-07,11962,-36.554517,60.142751,-16.0224
0.7027899351534974,-0.2626207729662173,-0.6207330282757448,-0.0023868155402638,-0.0033788157496446,0.0102598930092431,-1.5152574920078384e-05,-5.022249335601637e-05,-3.1754277610193224e-08,11963,-35.759465,59.085564,-15.425393
0.4502517793077403,-0.254588471361626,-0.380218840869033,-0.0016665856835648,-0.0023248948601511,0.0082624399117746,-1.5644193410896844e-05,-5.205188933189711e-05,2.588094912836753e-07,11964,-35.105683,58.290114,-15.068593
0.1129809568073985,-0.2624037825881821,-0.1461150659460604,-0.0010308349647468,-0.0011288591030164,0.0060539088032799,-1.585335845997535e-05,-5.2914763128183504e-05,5.08738883458729e-07,11965,-34.6144,57.748746,-14.905867
-0.1332697721626097,-0.2637966780277634,0.0317665129129329,-0.0004721445275908,0.0001914855098032,0.0036739822822497,-1.5863263360171677e-05,-5.313608467880541e-05,7.683588941799628e-07,11966,-34.187319,57.473915,-14.790124
-0.1900355198746335,-0.2334812402097892,0.1575529346569723,-1.1426414595381825e-05,0.0015788192017682,0.0012266942166432,-1.5697451202776627e-05,-5.284624806531791e-05,1.097489732539766e-06,11967,-33.722221,57.463707,-14.648479
-0.1667212084870301,-0.1993535366143238,0.2594478109834137,0.0003537849148391,0.0029546716149654,-0.0011631068165091,-1.5263515215473084e-05,-5.17028047342918e-05,1.4573550143617808e-06,11968,-33.301536,57.82932,-14.594315
-0.1810902020560049,-0.1965232790394432,0.348623876058533,0.0006371121690931,0.0041995863219146,-0.0033190475853286,-1.4429138983571027e-05,-4.917813536309582e-05,1.7462775234214938e-06,11969,-33.227762,58.683645,-14.816975
-0.2338248674034594,-0.2031743040077751,0.3866230228495191,0.0008580455868911,0.0052451459537361,-0.0051456707622675,-1.3197224299602843e-05,-4.523721504248709e-05,1.90967505593548e-06,11970,-33.418491,59.958618,-15.294372
-0.3002676024213745,-0.2096697135494555,0.3823626288035889,0.0010510184580608,0.0060776249696092,-0.0066387781238861,-1.1770939244941152e-05,-4.05813305488246e-05,1.982073929914961e-06,11971,-33.528068,61.4054,-15.822548
-0.3519015085912954,-0.2611603856338048,0.4198332663349458,0.0012645599162967,0.006677189922875,-0.0078004100007243,-1.0435764523540805e-05,-3.619768851142851e-05,2.022356664039945e-06,11972,-33.442918,62.871391,-16.176131
-0.3548678792936803,-0.3412618665975447,0.5138510818695039,0.0015673297892347,0.0070444213617422,-0.0086829783704974,-9.329511215206374e-06,-3.254896186676095e-05,2.0399680970438498e-06,11973,-33.574876,64.237393,-16.416265
-0.2724762577785231,-0.3635595579499987,0.6179708792301947,0.0019703657928144,0.0071884990921069,-0.009319047468502,-8.334651212378922e-06,-2.9254997962984425e-05,2.039639919725242e-06,11974,-34.14335,65.44697,-16.701781
-0.0234234115644661,-0.3257352689825314,0.7031985198968012,0.0024192747767029,0.0071269549882233,-0.0097190416025737,-7.233541836066644e-06,-2.5651746385354596e-05,2.0968938171702258e-06,11975,-34.769472,66.528299,-17.139639
0.3597410483736935,-0.2782174989845095,0.736999889889767,0.0028304211936769,0.0069190927518064,-0.0099494814906737,-5.865312135349349e-06,-2.126080772711727e-05,2.2928087505134706e-06,11976,-34.932664,67.578371,-17.77068
0.6087986088095602,-0.2186575821072776,0.7420052671885938,0.0030580641233492,0.0066724913652071,-0.0101252537415277,-4.154870159819499e-06,-1.579329473377565e-05,2.576548163958165e-06,11977,-34.425269,68.721082,-18.510292
0.5635165171507592,-0.1769931434164694,0.777963526886367,0.0030421974821862,0.0064318725136303,-0.0102934450027667,-2.1610067837869045e-06,-9.348077403966957e-06,2.81434274798148e-06,11978,-33.576991,69.980381,-19.335345
0.4122188377665062,-0.1663836347774744,0.8155587460830253,0.0028165705499287,0.0061801895650211,-0.0104381239199424,-6.17874111667495e-08,-2.46383476929233e-06,2.932081359037191e-06,11979,-33.140725,71.263499,-20.415443
0.3370672956188021,-0.0800450834875808,0.8114695599250649,0.0024123967253817,0.0058987764254601,-0.0105318171581205,2.002269377637433e-06,4.441206933857008e-06,2.867940367759807e-06,11980,-33.587039,72.538528,-21.882068
0.3112296303202727,0.1117762719533675,0.8003607146663094,0.0019036812695739,0.0055357254456341,-0.0105017676111805,4.019999774406871e-06,1.1389545986320834e-05,2.5471818935678977e-06,11981,-34.773897,73.812723,-23.711375
0.3184499926889544,0.3032531478982317,0.8012917006390259,0.0013221971344007,0.0050810375355033,-0.0103188905599049,6.0014650255738925e-06,1.836795951674865e-05,2.0333558374330203e-06,11982,-36.432396,75.03827,-25.945513
0.3434272553058199,0.4439458012797658,0.8091104656517998,0.000647885696724,0.0045741301754039,-0.010001995093016,7.880969019364989e-06,2.5022171859188063e-05,1.5062242921966623e-06,11983,-38.222073,76.159986,-28.505273
0.3215943622264845,0.5273369815963014,0.8427560062656889,-0.0001132019012214,0.0040443545561751,-0.0095468128746393,9.603034096161258e-06,3.1092186548177066e-05,1.0609727862564242e-06,11984,-40.080024,77.185131,-31.242871
0.2468408623608094,0.528689825916261,0.870786193355428,-0.000951362836904,0.0035334404336141,-0.0089477288926839,1.115727472311087e-05,3.6541798451277576e-05,6.939106488755961e-07,11985,-42.186625,78.117922,-34.091823
0.1468721819912294,0.4954433940457994,0.8454720650119687,-0.0018585426215544,0.0030558812619093,-0.0082009317324158,1.2499386459067311e-05,4.121888017628811e-05,4.121538270276168e-07,11986,-44.696538,78.947365,-37.124547
0.0925914171902257,0.4977383234810739,0.7958394775434492,-0.0028194724751341,0.0025895892667202,-0.0072969274908632,1.361713675142398e-05,4.510847682851915e-05,1.85918675752841e-07,11987,-47.700134,79.687397,-40.423204
0.0646673064416306,0.5071032076881092,0.7485405992039332,-0.0038246696003214,0.0021090817962477,-0.0062342218855285,1.4615329915727451e-05,4.866349799835006e-05,-1.200865827112294e-07,11988,-51.106877,80.327513,-43.950869
-0.1497830682583651,0.4902373660602336,0.6924474541824871,-0.0048692101346721,0.0015690246502999,-0.0050186859617991,1.5563632948919988e-05,5.217366227798155e-05,-5.824713424709979e-07,11989,-54.740158,80.852736,-47.607892
-0.4979901954100652,0.4637783782368053,0.6245956797841277,-0.0059331515299606,0.0009486214071185,-0.0036455502942092,1.6354177551996735e-05,5.520362488284598e-05,-1.1024074177870718e-06,11990,-58.315912,81.23156,-51.077285
-0.6717018625171063,0.4344009101293841,0.5374857761845748,-0.0069811224907125,0.0002560771792155,-0.002100518466819,1.6833284485654048e-05,5.717153500461357e-05,-1.590961503134456e-06,11991,-61.471062,81.49297,-54.038303
-0.7927943464599453,0.4091684860639381,0.4544957935118395,-0.0079679225482623,-0.0005063524134911,-0.0003672016267952,1.6953806692079433e-05,5.792625231136949e-05,-2.064493160704452e-06,11992,-64.444422,81.628894,-56.727837
-1.1488648823839809,0.3880966342058749,0.3542014092373539,-0.0088304752610152,-0.0013289912226962,0.0015779429161607,1.670079000553518e-05,5.739408915081652e-05,-2.4974899502283537e-06,11993,-67.238306,81.485408,-59.035931
-1.4802916699717847,0.3734197588711285,0.0557195755472181,-0.0095326773541877,-0.0021984085697748,0.0037238585741562,1.5999087145268077e-05,5.524677209765842e-05,-2.7806437366152817e-06,11994,-68.708168,80.961345,-59.782882
-1.4590783650679464,0.3463220107234228,-0.4546008373267134,-0.0100676804822098,-0.0030987977457506,0.0060186341036557,1.480651511026288e-05,5.129934991215332e-05,-2.8453172733529234e-06,11995,-67.551421,80.157177,-57.82475
-1.289872582092399,0.1997343919003873,-0.8601205757999283,-0.010430853491973,-0.0039970427871592,0.0083872887351672,1.321306890674738e-05,4.590189330407932e-05,-2.757285180978317e-06,11996,-64.17396,79.195037,-53.702067
-1.135576119188615,-0.0932402504328079,-1.0069793131914806,-0.0106341665086125,-0.0048402808544083,0.0107114769518334,1.1363068119011364e-05,3.9661447699905663e-05,-2.689092757213775e-06,11997,-60.013631,78.112081,-48.805377
-0.7944656625711652,-0.3510832512385264,-1.0324420233893383,-0.0106814157781657,-0.0055942413960096,0.0129059820338996,9.34442062594724e-06,3.297717292795429e-05,-2.775740371221372e-06,11998,-56.766062,76.884842,-44.580845
-0.2985600800544623,-0.4470907332323851,-1.0303359528268867,-0.0105672706296141,-0.0062411846396892,0.0149182008566848,7.184224580842858e-06,2.591184014117171e-05,-2.9647849999299645e-06,11999,-54.747549,75.495008,-41.292269
0.0632623953563223,-0.4608025153932629,-1.0796775624141,-0.010303208688922,-0.006757367293741,0.0166692720223777,4.900998093224741e-06,1.8416277098789502e-05,-3.107221168049014e-06,12000,-53.023802,73.923877,-38.367854
0.2710025345902789,-0.4616961285849766,-1.2338692343953874,-0.0099140196638669,-0.0071215975555476,0.0180694459141395,2.5281239352868787e-06,1.0571649837627656e-05,-3.169108637861258e-06,12001,-50.876563,72.224743,-35.317502
0.46860587258117,-0.4280609504112359,-1.3312143802412906,-0.0094119923768675,-0.0073146075412752,0.0190553848295991,7.202533522870221e-08,2.399037745378053e-06,-3.141557284279308e-06,12002,-48.39673,70.440742,-32.061169
0.625259374828173,-0.3825363032005501,-1.2630205761516806,-0.0087999521843275,-0.007317748050082,0.0195871737838399,-2.4707061504412457e-06,-6.211986841307631e-06,-2.885569512604794e-06,12003,-45.947763,68.565767,-28.866873
0.7122602340419055,-0.3656739785559171,-1.161577174806753,-0.0080829396167095,-0.0071202277845724,0.0196431841407704,-5.010056734505814e-06,-1.5033733892431882e-05,-2.3176890606198244e-06,12004,-43.643568,66.63578,-25.908087
0.8085381725074783,-0.3312821834834094,-1.0944709820214964,-0.0072627627447844,-0.0067202473140843,0.0192337612731613,-7.394696461490518e-06,-2.3467602370666325e-05,-1.5791561609670684e-06,12005,-41.481257,64.69301,-23.274617
0.8600210774210009,-0.2307236247884764,-1.0257221109708206,-0.0063628266250166,-0.0061211051360567,0.0183688480818086,-9.554671262729733e-06,-3.115370728839792e-05,-8.396063924135266e-07,12006,-39.379778,62.789053,-20.966305
0.8011867528413343,-0.1014437055380464,-0.9632786580222256,-0.0054328989662175,-0.0053349918850118,0.0170644127612687,-1.1482866761511653e-05,-3.805383790676092e-05,-1.140240007366606e-07,12007,-37.328806,61.020917,-18.963244
0.7333877977755572,0.0075963776730843,-0.8658491551312286,-0.0045377183325389,-0.0043898629406693,0.0153781979888444,-1.3130614021477836e-05,-4.399964311228984e-05,5.855545129845095e-07,12008,-35.622503,59.465508,-17.324608
0.7023678908005351,0.0853239554849431,-0.6863100641719265,-0.0037698122763444,-0.0033338508842956,0.0134134589055181,-1.4466613121954644e-05,-4.88120331367338e-05,1.1527540549610486e-06,12009,-34.407734,58.177173,-16.083195
0.6433082897855278,0.1267867484553145,-0.4889214353565811,-0.0031771006167744,-0.0021922246488433,0.0112240900783167,-1.5531287353099544e-05,-5.259052874869779e-05,1.538178863106466e-06,12010,-33.612378,57.178987,-15.208515
0.5413879341960853,0.1463190268504466,-0.323961050783883,-0.0027584177902986,-0.0009676594108943,0.008817863073198,-1.6321477779650314e-05,-5.536788944471153e-05,1.7953728959239935e-06,12011,-33.036406,56.484646,-14.583983
0.4405183672966425,0.1702531611347016,-0.1551522803526593,-0.0025069477146878,0.0003338441747732,0.0062098623028396,-1.6770007065727212e-05,-5.6974570822553146e-05,1.9864155613496003e-06,12012,-32.503003,56.059397,-14.113726
0.3737361794349928,0.1682906643279438,0.0025385733982282,-0.0023861081522442,0.0017143667483784,0.0033985597837254,-1.6862324392857054e-05,-5.738294979054541e-05,2.130784298197416e-06,12013,-31.998394,55.896761,-13.722438
0.3580266223541114,0.120349580748174,0.0815740697631968,-0.0023759973918679,0.0031514004616293,0.000443311287868,-1.660924296102245e-05,-5.660325280333208e-05,2.195622849619497e-06,12014,-31.688754,55.977837,-13.463445
0.358780371916062,0.084657601787021,0.1210455564075066,-0.0024749962743599,0.0045919643994504,-0.0025215370529451,-1.5943266628161213e-05,-5.437300445033465e-05,2.1386209697826693e-06,12015,-31.561364,56.379528,-13.450322
0.2304129896949356,0.0781283048061572,0.2080783936882725,-0.0026538517320472,0.0059731832794885,-0.0053315139744203,-1.4799480395679737e-05,-5.051795894720169e-05,2.0216646194224773e-06,12016,-31.673693,57.268568,-13.867689
-0.0950051232544282,0.0796376140520633,0.3092805359825964,-0.0028630789020908,0.0072079133269143,-0.0077562877760561,-1.326121213788662e-05,-4.541821301892481e-05,1.9829623139444065e-06,12017,-32.067744,58.644041,-14.72083
-0.4299500854616767,0.0830351604946989,0.3360849643843738,-0.0030501413958778,0.0082380921406822,-0.0096719843055098,-1.1515255344718149e-05,-3.9665816983339305e-05,1.9852781756941782e-06,12018,-32.525043,60.379376,-15.747629
-0.5736661484984394,0.0340257929150545,0.3149386513902852,-0.0031496857932552,0.0090378061428252,-0.0110738976077823,-9.73721714840447e-06,-3.3672633269824734e-05,1.8065156646490767e-06,12019,-33.028289,62.293164,-16.706561
-0.5584747133559749,-0.0703220677905589,0.3584612839645595,-0.003072685167411,0.0095754246118261,-0.0119693793130156,-8.081996369213863e-06,-2.787740892863597e-05,1.3543728603071917e-06,12020,-33.897929,64.260966,-17.599689
-0.5031017839009061,-0.1410737869586832,0.4757762209296503,-0.0027012057333731,0.0098289183488431,-0.0124358661723737,-6.619643909557453e-06,-2.2615075339937616e-05,7.706855582043692e-07,12021,-35.492341,66.140729,-18.596928
-0.363035907345167,-0.1404047477017841,0.5609537206320306,-0.0020206659050538,0.0097992058207888,-0.0125276912681204,-5.231343973694742e-06,-1.7673891663559345e-05,2.989065491259604e-07,12022,-37.414384,67.787769,-19.715124
-0.0451584662966828,-0.0673125987882152,0.5845960301193371,-0.0011338777726206,0.0095128915977331,-0.0122750208040515,-3.740929640892609e-06,-1.2658591000030635e-05,1.8836826750003777e-07,12023,-38.601794,69.162914,-20.82452
0.2737503847813244,0.0583679581367027,0.6080048469172508,-0.0002067317520549,0.0090354363957251,-0.0117890852621674,-2.0980958122977197e-06,-7.490869877302439e-06,5.582975898264919e-07,12024,-38.397447,70.463165,-21.695562
0.3304343608689425,0.1309247288485204,0.635005225365319,0.0004724140255048,0.008485509688447,-0.0112544185012686,-3.320636696352624e-07,-2.1369471054393068e-06,1.2414467264938223e-06,12025,-37.289467,71.759577,-22.299409
0.2178469422817301,0.1003885037607095,0.6537737255120912,0.0007828500790589,0.0079165448115578,-0.0107532565890265,1.499627803785456e-06,3.4741945711999646e-06,1.891098465419536e-06,12026,-36.22464,72.912518,-22.884415
0.1915521377705263,0.0709175164080209,0.6920691483855848,0.0007852859604226,0.0073161935884927,-0.0102714133484945,3.2922670252406805e-06,9.17744506615094e-06,2.2579708186747435e-06,12027,-35.702003,73.917736,-23.645903
0.2407771885609556,0.0927053185794691,0.7306511687657915,0.0005362174161602,0.0066768701094713,-0.0097791700336433,4.974977944147242e-06,1.4793011255467845e-05,2.2642316868870034e-06,12028,-35.595004,74.886154,-24.493825
0.253679144216772,0.1108343138767045,0.7656030529817199,0.0001761541293695,0.0059627978427771,-0.0091800897392202,6.577037965330896e-06,2.037749995307447e-05,1.96175398402214e-06,12029,-35.823999,75.856907,-25.531832
0.2431297295721577,0.1178175147478511,0.8434475981152845,-0.0002414568936793,0.005172255835543,-0.0084437395165602,8.154440066453601e-06,2.597617045834201e-05,1.5269063097418724e-06,12030,-36.570093,76.78655,-27.091256
0.2136538467453583,0.1111978233703911,0.9191630035754323,-0.0007694743733713,0.0043457004107739,-0.0076128019748293,9.709984466994586e-06,3.1477867830839536e-05,1.1098851361150256e-06,12031,-37.784174,77.645891,-29.178332
0.1515619979860432,0.0817291181943767,0.9047311243153068,-0.0014137561443654,0.0035113162068442,-0.0066969487874613,1.12263777094775e-05,3.686742022516353e-05,6.613565380885105e-07,12032,-39.263236,78.435566,-31.509944
0.0873643952240975,0.0888924361695472,0.8240682180392207,-0.0021796172534672,0.0027035420770838,-0.0057059857273458,1.2661189722985224e-05,4.20817948912573e-05,9.040222233201861e-08,12033,-41.000359,79.096479,-33.94045
0.0540259658487107,0.1593649286409501,0.7582306659558748,-0.0030695217065014,0.0019446836342484,-0.004648796759415,1.3879940272505964e-05,4.658139210615404e-05,-4.837677645052883e-07,12034,-43.051052,79.601362,-36.43023
0.0102673424631099,0.2287529222319062,0.7087947056698483,-0.0040658075698478,0.0012378151579622,-0.0035218503239916,1.480310334707519e-05,4.998937203310045e-05,-9.231136303334536e-07,12035,-45.195307,79.928298,-38.775076
-0.1325123790505162,0.2597797124754049,0.6105189328543573,-0.0051648765908103,0.0005885366777025,-0.0023328831175588,1.5525527218928265e-05,5.270405407317089e-05,-1.3338023521132658e-06,12036,-47.143392,80.059742,-40.818873
-0.282186084761774,0.2711660587767637,0.4709932844780208,-0.006371855293306,-2.984905828950623e-06,-0.0010979944641969,1.6115962500019814e-05,5.504347036042691e-05,-1.8237666610131757e-06,12037,-48.511382,79.993658,-42.296747
-0.3109035283239401,0.2534247010919805,0.3539584421600208,-0.0076715606111051,-0.0005420994682073,0.0001816383050365,1.6555950305989766e-05,5.689722890157556e-05,-2.3287734690991247e-06,12038,-49.1396,79.835202,-43.127325
-0.3837176831781393,0.2038513244054369,0.2264021627133825,-0.0090303886194242,-0.0010394850164396,0.0015181245358034,1.6888972132476682e-05,5.839328928046096e-05,-2.834195741733031e-06,12039,-49.777748,79.713888,-43.935498
-0.6657136677012832,0.1756913062988544,0.0735199284961948,-0.0104028618524108,-0.0015206128743236,0.0029295692380006,1.7136334425251787e-05,5.962743598544212e-05,-3.3767989010526958e-06,12040,-50.976355,79.558274,-45.080949
-1.0034656847575183,0.1813622469736508,-0.0154106451067857,-0.0117215205845384,-0.002029166496379,0.0044473009723649,1.710235464726013e-05,5.984344515656065e-05,-3.8240859536512656e-06,12041,-52.500439,79.305572,-46.29634
-1.1848294161030375,0.1812222411614003,-0.1446534158677733,-0.0129263146960883,-0.002581223943122,0.0060772609261874,1.6472215689504178e-05,5.781690077540039e-05,-3.956783238418339e-06,12042,-53.512658,78.839694,-46.699337
-1.2005192963003646,0.1685804899220513,-0.5117841054606033,-0.0139620849462347,-0.0031645212859899,0.0077969333895373,1.5140761865082204e-05,5.321103619429758e-05,-3.7921156988601895e-06,12043,-53.34545,78.108041,-45.673634
-1.1157569049439058,0.1274377814538757,-0.9203706939335548,-0.014751843604792,-0.0037627207953862,0.0095773045845389,1.3285748624657773e-05,4.684175305560921e-05,-3.6024821056425588e-06,12044,-52.210744,77.188969,-43.455554
-0.8922741620776111,0.0079994362691079,-1.0456965622628809,-0.0151987708871604,-0.0043410154185804,0.0113688940455981,1.1118033844818672e-05,3.9551000481669874e-05,-3.554872178454823e-06,12045,-51.073528,76.158499,-40.954576
-0.464697251601844,-0.1609740478841174,-0.9888298645587056,-0.0152670615186903,-0.0048750000409414,0.0131186409606257,8.796633857524128e-06,3.1838169003031915e-05,-3.6083418782937433e-06,12046,-50.639383,74.973175,-38.842569
0.0167078174518971,-0.2830996622926984,-1.0117584052255904,-0.0149873997526523,-0.0053513319538231,0.014767161712233,6.5119059016170055e-06,2.433006820048998e-05,-3.7528528001837833e-06,12047,-50.428542,73.605865,-37.034796
0.2735001280164498,-0.342576161232941,-1.1075443418647368,-0.0144264429318425,-0.0057398664944187,0.0162227025130544,4.379623963472223e-06,1.7408841379323628e-05,-3.981071471754359e-06,12048,-49.475413,72.091751,-35.008568
0.3525238772176603,-0.3832544455019761,-1.154142768367146,-0.0137210555100177,-0.0059981756906362,0.017356976888132,2.3112317086719434e-06,1.0643189306279578e-05,-4.114546580921091e-06,12049,-47.516069,70.490071,-32.522699
0.4973282056251953,-0.4024288994574164,-1.131131322304055,-0.0129362023970366,-0.0061035420432412,0.0180979072254077,1.4382935996979445e-07,3.349097084100524e-06,-3.9693150016567215e-06,12050,-45.135472,68.815374,-29.809531
0.6917944700422449,-0.3856599316576043,-1.0749492906376883,-0.0120621206322546,-0.0060514077516282,0.0184306151289277,-2.1508250678561875e-06,-4.536919169205376e-06,-3.582641499859635e-06,12051,-42.897335,67.090073,-27.181954
0.8304303897764592,-0.3575619887801115,-1.0070875833087918,-0.011114569400147,-0.0058434252543384,0.0183499609550608,-4.43828627609572e-06,-1.2435057909114589e-05,-3.1280630750879124e-06,12052,-40.914568,65.341299,-24.801136
0.9186568176856932,-0.3388027852982209,-0.9253574870364448,-0.0100990385716388,-0.0054973700235581,0.0178898413607989,-6.556925564567966e-06,-1.9742605974425933e-05,-2.7028894045498304e-06,12053,-39.099248,63.613207,-22.701817
0.9356587396804646,-0.2964553644694569,-0.8309309795476945,-0.0090442501799484,-0.0050222516774563,0.0170614785275429,-8.44031388642658e-06,-2.6289929687627235e-05,-2.254084360066296e-06,12054,-37.374283,61.960483,-20.864674
0.8713352241488495,-0.1869328091008139,-0.7362472204723233,-0.0080150994958814,-0.004418835957596,0.0158523149518984,-1.0079896834541214e-05,-3.2122165014010026e-05,-1.690507558887448e-06,12055,-35.731854,60.425114,-19.33413
0.7974842786333517,-0.038420268024183,-0.651192065901653,-0.0070736085152693,-0.0037018197683895,0.0142842522184122,-1.1438835136241411e-05,-3.710696045259837e-05,-1.02134716797074e-06,12056,-34.266904,59.079182,-18.151982
0.7488919252386925,0.0717437510416083,-0.565681780798686,-0.0062937157045374,-0.0028963215230225,0.012403789973626,-1.250193637732624e-05,-4.112018304378696e-05,-3.361982587073608e-07,12057,-33.087391,57.993464,-17.337726
0.6958492649100502,0.1148001430263129,-0.4512826256692687,-0.0057141395741525,-0.0020171283589787,0.0102451189146504,-1.3317372590818834e-05,-4.4258508290097846e-05,2.819159625277652e-07,12058,-32.198325,57.197292,-16.835571
0.6058699440214865,0.1197944551967737,-0.3050084058551143,-0.0053292149972021,-0.0010711266939928,0.0078389889090176,-1.3904345332618642e-05,-4.652628699455232e-05,7.478492131383999e-07,12059,-31.483165,56.703869,-16.526591
0.4671601402591701,0.1080999171850838,-0.1480180259844291,-0.0051190933310117,-6.621950811295596e-05,0.0052294047124475,-1.4210760296559962e-05,-4.7678867514597166e-05,9.57729767320269e-07,12060,-30.945334,56.489435,-16.350299
0.3158797682451725,0.0954605247181409,-0.0076784866590281,-0.0050285762618893,0.0009932537604399,0.0024703153478243,-1.417645287534809e-05,-4.748900592361004e-05,8.631470202636694e-07,12061,-30.68554,56.562595,-16.32568
0.199557875457417,0.088450661966081,0.0787115872419692,-0.0050177413708031,0.0020857755454668,-0.0003568508657053,-1.3764851233622522e-05,-4.58876679789461e-05,5.258463665323835e-07,12062,-30.835329,56.946871,-16.551454
0.1196512665083933,0.0744439400569614,0.1468321111191057,-0.0050608269467373,0.0031691171534048,-0.003134117293434,-1.2954864884011416e-05,-4.2877643411094886e-05,5.155502139418176e-08,12063,-31.429726,57.716624,-17.199536
-0.0339035391602454,0.0744798521244401,0.3038088904712026,-0.0050974279280659,0.0041903975709122,-0.0057066967480592,-1.177991810645475e-05,-3.861318908916329e-05,-4.809647155665969e-07,12064,-32.390493,58.814227,-18.301772
-0.3845817435005558,0.0472198853203424,0.5227696855337458,-0.0050382176322818,0.0050760235700746,-0.0078651184416675,-1.03983404752109e-05,-3.368476197847523e-05,-9.747538022155636e-07,12065,-33.270514,60.154223,-19.63094
-0.8015738376227561,-0.1390358121688643,0.6595387704853722,-0.0048403099660437,0.0057855872858671,-0.0095113103540125,-9.050328643947298e-06,-2.8977994687975314e-05,-1.3170860115394575e-06,12066,-33.891207,61.552416,-20.903792
-0.9939094213118344,-0.4140050882004998,0.6995255110436295,-0.0045055103423434,0.0063153550178205,-0.0106698734827427,-7.905643277673018e-06,-2.5072595842349296e-05,-1.4882351859715282e-06,12067,-34.263688,62.92074,-21.98348
-0.8268853257861927,-0.5305890752879652,0.723313403583833,-0.0040485543473092,0.0066655688712025,-0.0114018407676235,-6.9984800078680885e-06,-2.2044075872694223e-05,-1.5380514122185776e-06,12068,-34.875315,64.216818,-23.032288
-0.3908475322116034,-0.4821074782783859,0.7443011261889352,-0.0035209474737523,0.0068584155607957,-0.0118660693430511,-6.23917404532918e-06,-1.9567579219711678e-05,-1.510094243213911e-06,12069,-36.057501,65.431771,-24.235357
0.0634450612477703,-0.4225683424703653,0.7503533914425107,-0.002955252805742,0.0069082290194946,-0.0121325020395014,-5.40944653393668e-06,-1.6833158948232526e-05,-1.5183071158040532e-06,12070,-37.4682,66.58974,-25.705687
0.2769175528319016,-0.3030852146931438,0.7594154445999814,-0.0023659883912698,0.0068211343157534,-0.0121759065568524,-4.287235617955674e-06,-1.298944531744564e-05,-1.6978298104115415e-06,12071,-38.597433,67.765783,-27.432104
0.2596734661227033,-0.0942951089955499,0.7946477555175095,-0.0018010167876441,0.0066279523103659,-0.0120225815815547,-2.839673046637969e-06,-7.955483952335396e-06,-1.9995322825186045e-06,12072,-39.314253,68.996591,-29.333734
0.2333438257622589,-0.0067821502429636,0.8527201284310111,-0.0013340685872708,0.0063814224339355,-0.0117064467274803,-1.2008477416270867e-06,-2.2850566691195394e-06,-2.285551274079915e-06,12073,-39.976878,70.259666,-31.436843
0.2549146478905318,-0.1170160395181018,0.8825132912431656,-0.0009976965687776,0.0061053262911697,-0.0112434096602802,4.520638949965637e-07,3.4280716917626e-06,-2.5589818920632127e-06,12074,-41.041385,71.506088,-33.804476
0.2499500316409094,-0.2386774263336255,0.8495168991902144,-0.00078578786918,0.0057967276615262,-0.0106447102690848,1.9494010191828345e-06,8.650872323218857e-06,-2.866171078059157e-06,12075,-42.723207,72.728536,-36.519931
0.2212366373127969,-0.2538165925382716,0.791265709820808,-0.000680325585242,0.0054494427189807,-0.0098970242564669,3.16850911855714e-06,1.2913237490732248e-05,-3.129102048084311e-06,12076,-45.192394,73.893026,-39.781518
0.1927649707322273,-0.2125109870926768,0.7384321623602025,-0.0006305246857073,0.0050397559809866,-0.008955381260709,4.044904713550846e-06,1.593255176415761e-05,-3.261065076703497e-06,12077,-48.30458,74.957645,-43.523592
0.1678511120574043,-0.1961752271111074,0.686202499478226,-0.0006046800386765,0.004566297263604,-0.0078233896767004,4.573464198350457e-06,1.7733508237664886e-05,-3.317303615927055e-06,12078,-51.737582,75.857313,-47.485646
0.1379545229862247,-0.2355632585797744,0.637685936344708,-0.0005896338736748,0.0040531243802322,-0.0065536784290812,4.812871696765564e-06,1.856978783664093e-05,-3.373416415309298e-06,12079,-54.980417,76.578507,-51.203235
0.0956085695403915,-0.297169953224381,0.574509725866055,-0.0005448230593255,0.0035201118466066,-0.005206250524586,4.830316264303054e-06,1.8632561929539132e-05,-3.385913092533777e-06,12080,-57.648154,77.117176,-54.32233
0.0496315063259478,-0.3272677578219409,0.4729198790390724,-0.000410237189905,0.0029947111081371,-0.0038732210165147,4.634269981684581e-06,1.7896590440267882e-05,-3.282008974787346e-06,12081,-59.576556,77.51161,-56.741656
0.0151248247654129,-0.3138511103327601,0.3488037047201487,-0.0001572964653442,0.0024926279393429,-0.0026086032254665,4.1899885736750265e-06,1.6216701524090292e-05,-3.019696175964703e-06,12082,-60.801289,77.748753,-58.524838
-0.0035855346034343,-0.306083196470678,0.1900273746459438,0.0002137092740398,0.0020138550710505,-0.0014230560250709,3.516974737199633e-06,1.3623609727829424e-05,-2.5544403382441937e-06,12083,-61.25764,77.838336,-59.656078
-0.0866900971399221,-0.3341142523336049,-0.0421686751517084,0.0006922529798801,0.0015602346401876,-0.0003368656870515,2.710814695338492e-06,1.0425721059995843e-05,-1.873509380331984e-06,12084,-60.967817,77.817471,-60.163319
-0.383650856984225,-0.3752247285337882,-0.2901284544710467,0.0012417485485324,0.0011285460821809,0.0006401936168317,1.8495009107613612e-06,6.909218791775497e-06,-1.0104117156467634e-06,12085,-59.888505,77.707281,-59.974566
-0.8599753564299698,-0.4280720100124647,-0.4446267129659882,0.0018404035725181,0.000715643901706,0.0014982771424629,9.759423511725409e-07,3.2641625583252818e-06,-3.0947044127110376e-08,12086,-58.129793,77.604806,-59.285995
-1.203294449895824,-0.4499522349144857,-0.4896488351162289,0.0024804236496983,0.0003193337051497,0.0022240550664939,1.3345870988651988e-07,-2.911857850028129e-07,9.608049218109391e-07,12087,-56.343577,77.580427,-58.740253
-1.274320946990822,-0.4274061620922882,-0.4961259931153184,0.0031321540147574,-7.10588724091841e-05,0.0028238454404503,-7.156353872283405e-07,-3.865380697468473e-06,1.938927049363772e-06,12088,-54.972664,77.55677,-58.719835
-1.3583293377132308,-0.5536171586381885,-0.565829773713223,0.0037501089554078,-0.000474818407128,0.0033237015838008,-1.719879204529332e-06,-8.061054483761916e-06,3.045700463288719e-06,12089,-53.948552,77.400744,-58.884375
-1.6329812567958624,-0.8983128010684336,-0.746573439867801,0.0043222911866229,-0.0009027392079375,0.0037260832962428,-2.9680193860122646e-06,-1.3246372170069883e-05,4.3811745240933456e-06,12090,-52.45362,77.132898,-58.34583
-1.7883847903011865,-1.1784350257265654,-0.9413503371021428,0.0048698826587656,-0.0013582428218148,0.0040118209480493,-4.392754640658203e-06,-1.910469347121937e-05,5.8290821649626605e-06,12091,-50.056156,76.830553,-56.808565
-1.5076203907689751,-1.2289190268809471,-1.0235811127953232,0.0054297735806859,-0.0018466166692948,0.0041620284833026,-5.864736767665645e-06,-2.508461938944808e-05,7.228913043914589e-06,12092,-47.250432,76.487667,-54.940571
-0.9932381838191002,-1.1959739956415767,-1.0153703240806853,0.006072279407805,-0.002371095021692,0.0041467271847868,-7.278185005281757e-06,-3.083736004761731e-05,8.575398605051315e-06,12093,-45.111819,76.153775,-53.782104
-0.6249912706882124,-1.1358316359569651,-1.03901425156794,0.0068205509645435,-0.0029272905712445,0.0039570146211339,-8.568950611897218e-06,-3.619839166431065e-05,9.928662498403373e-06,12094,-43.963427,75.841396,-53.598842
-0.4415809553237189,-1.0136706830604263,-1.1603944652949896,0.0076464127257203,-0.0035021118446805,0.003609152017944,-9.695880033828392e-06,-4.097935520243634e-05,1.122830276470028e-05,12095,-43.526293,75.470641,-54.120294
-0.304919782968486,-0.901331299100662,-1.3246528045733093,0.008521909504701,-0.0040713930551463,0.0031226029831385,-1.0628249992885006e-05,-4.502433047747406e-05,1.2408379581242117e-05,12096,-43.111311,75.016113,-54.826683
-0.1903699119664199,-0.7737328530651101,-1.4024551550311992,0.0093944596425808,-0.0045951424503405,0.0025318270199879,-1.1348876573630404e-05,-4.834181654029506e-05,1.3553141828879144e-05,12097,-42.293143,74.526278,-55.51639
-0.1160414300237947,-0.5811344386152413,-1.3403111192475614,0.0102390553607313,-0.0050556698372743,0.0018539801494204,-1.183663086003266e-05,-5.088197859147192e-05,1.469258788337872e-05,12098,-41.206145,74.063689,-56.317962
-0.0442466006411773,-0.4105941362983412,-1.218747602536376,0.0110640637301376,-0.005458494479624,0.0010861745004116,-1.2077426490322186e-05,-5.247305565684058e-05,1.567079650117999e-05,12099,-40.142958,73.652208,-57.44837
0.0347815619223932,-0.2510981029012421,-1.1327146099825325,0.0118664882717998,-0.0058102753578843,0.0002307424512909,-1.2074475431030577e-05,-5.3033341036718565e-05,1.6366406398568883e-05,12100,-39.342808,73.291425,-58.947607
0.0980415746323461,-0.0336040396483252,-1.1196140059254305,0.0126468292365038,-0.0061303943636496,-0.000714023352419,-1.1819739577473683e-05,-5.259215236112524e-05,1.6841858893342716e-05,12101,-38.869137,72.968097,-60.758093
0.1465399393942746,0.1698810105838975,-1.1452999312985617,0.0134072985296607,-0.0064267698000312,-0.0017358941483801,-1.1300030444184124e-05,-5.1158745789375135e-05,1.7163198394170695e-05,12102,-38.647127,72.668557,-62.852663
0.1829060110996209,0.3201007594097847,-1.1267241553781844,0.0141480855524173,-0.0066939580879737,-0.0028040599869962,-1.0516801989685384e-05,-4.866943735117508e-05,1.7253912073824817e-05,12103,-38.523544,72.43085,-65.224316
0.2229040368856909,0.5162848480633195,-1.039693156507889,0.0148806707017927,-0.0069345914265097,-0.003882599022138,-9.48313297350846e-06,-4.513047093410927e-05,1.7077199827210432e-05,12104,-38.508815,72.284743,-67.90918
0.260958329737373,0.7521684954347103,-0.9345532530884788,0.0156282681534551,-0.0071535374587016,-0.0049219793812983,-8.215204287090757e-06,-4.065313553575453e-05,1.67099444229628e-05,12105,-38.725487,72.250466,-70.938902
0.2630675537270674,0.8872837284992028,-0.8388259297303075,0.0164004353149498,-0.0073506386785935,-0.0058923034945587,-6.734516409108319e-06,-3.532986450757925e-05,1.618100522936242e-05,12106,-39.253624,72.348133,-74.298706
0.2348348372112986,0.9157110083114282,-0.7443444273483864,0.0171943242092209,-0.0075224655611139,-0.0067859408728376,-5.101875039716298e-06,-2.9360470570349424e-05,1.549095099927516e-05,12107,-40.245676,72.571383,-78.052639
0.2149885789035645,0.937976386540761,-0.6510910697582416,0.0180076726852343,-0.0076612194895894,-0.0075950022520584,-3.389509626716432e-06,-2.300585589768337e-05,1.4663174252414335e-05,12108,-41.75102,72.864529,-82.293491
0.2337832973124649,0.978612675781422,-0.5605715491677736,0.0188323011645392,-0.0077524284004076,-0.0083220150285499,-1.5945097909506233e-06,-1.6210103228332162e-05,1.362344125404132e-05,12109,-43.57594,73.169451,-86.957105
0.2807624123178392,1.0202233709216115,-0.4736597267439957,0.0196596812353831,-0.0077828395935234,-0.008960966294615,3.169372249161061e-07,-8.759958465615606e-06,1.2233110044321787e-05,12110,-45.458227,73.410754,-91.87036
0.3149036621270302,1.0572212245378694,-0.396633101642617,0.0204809008325138,-0.0077390560357274,-0.0094954118139347,2.3158998263001268e-06,-7.468884022944433e-07,1.0496549890881496e-05,12111,-47.133429,73.524845,-96.840689
0.3200485052634578,1.0741688309627306,-0.2902355120631058,0.0212775504848791,-0.0076003176420012,-0.0099168762803285,4.330784827376854e-06,7.497090658823843e-06,8.546762350823044e-06,12112,-48.577449,73.574138,-101.86024
0.3184769058704572,1.05590766927499,-0.0560788100477426,0.0220210067411141,-0.0073383501621013,-0.0102204679553606,6.287618535863809e-06,1.5640492593525753e-05,6.491209387343212e-06,12113,-49.79257,73.620924,-106.792797
0.3227033484887625,1.015153462005301,0.3039960785688167,0.022697362609717,-0.0069595585139578,-0.0104008921455448,8.118742153600405e-06,2.3328557135780115e-05,4.490086806626643e-06,12114,-50.763666,73.767881,-111.491075
0.3256289992812797,0.9731170976758428,0.6029657544591881,0.0233072681483833,-0.0065097469445741,-0.010455111928417,9.7561421822371e-06,3.011768947601898e-05,2.8218238550368854e-06,12115,-51.469564,74.066979,-115.773183
0.3261492580253609,0.9304954589421728,0.7173301164023056,0.0238532854121931,-0.0060590187228679,-0.0103822188292448,1.116208709384526e-05,3.578261958731012e-05,1.6113675271870655e-06,12116,-52.160667,74.515314,-119.788343
0.3244970258896428,0.8856271834742542,0.7434377334041669,0.024347392779523,-0.0057218149372454,-0.0101840348248529,1.237914350335404e-05,4.060780818100408e-05,6.679292077915565e-07,12117,-53.236681,75.028685,-123.812893
0.3301255903134207,0.850499322842654,0.7918603797522241,0.024793757565914,-0.005543496405204,-0.0098735133589228,1.346016697736804e-05,4.4953901868113245e-05,-2.441509384450915e-07,12118,-54.575353,75.498222,-127.973579
0.3517956215816176,0.8241811531559287,0.8672588048279906,0.0251878785377953,-0.0054941206560844,-0.0094774715182577,1.4424178650924596e-05,4.898628784634331e-05,-1.247194962402958e-06,12119,-55.978407,75.842823,-132.339101
