AccX_processed,AccY_processed,AccZ_processed,GyrX_kalman,GyrY_kalman,GyrZ_kalman,MagX_processed,MagY_processed,MagZ_processed,PacketCounter,Roll,Pitch,Yaw
-0.0689202083628816,0.6804976387849806,0.1342231881434592,0.0015578548817705,0.0004659524541796,-0.0001402693975406,1.4342106372353262e-07,5.982817963256325e-07,3.250824944689972e-07,11582,-6.987083,3.906675,4.459181
-0.2262968644339522,2.0066137579770853,0.3984090096923824,0.0014846708967539,0.0004987602516236,-0.0001178198204,3.368060079563602e-07,2.1416311803948025e-07,4.520858097728791e-07,11583,-7.000708,3.910975,4.449759
-0.3049910597449825,2.6317676541995465,0.5254363066497472,0.0012674879434106,0.0005217173871608,-6.410778292603307e-05,4.697059549361398e-07,-8.457249352332e-08,5.232915954622534e-07,11584,-7.012679,3.913415,4.46406
-0.2377998492535121,1.9051010284759728,0.387014363343934,0.00099571226976,0.000537974856255,1.6737520856643473e-05,5.421209046628715e-07,-2.979250383627684e-07,5.386998515371203e-07,11585,-7.02469,3.923153,4.480446
-0.2446980634514428,1.9311815793814384,0.3982761500525191,0.0007197753640584,0.0005499174907698,0.0001216676684863,5.540508571365545e-07,-4.258945164788646e-07,4.983105779974794e-07,11586,-7.047564,3.936942,4.449681
-0.232601241342306,1.8081000739128688,0.3792684578754071,0.0004637624737831,0.0005588056754916,0.0002462691448794,4.310263694173101e-07,-4.189968938187351e-07,2.597750027078368e-07,11587,-7.062706,3.950773,4.465889
-0.2006690927677719,1.547141301307415,0.3307011120037488,0.000245020643076,0.0005659441866063,0.0003823030318623,2.880614740945497e-07,-4.118128601455712e-07,1.4312284827500545e-07,11588,-7.079365,3.970534,4.489649
-0.1892031317094453,1.462509131602687,0.3145699081791456,6.682543497140933e-05,0.0005727053117896,0.0005143835071914,2.1471417824019002e-07,-4.302009751475896e-07,1.182492249391585e-07,11589,-7.100883,3.97772,4.481968
-0.1538353161566869,1.2578369981001778,0.2733794961528649,-6.676035571223291e-05,0.0005797807351974,0.0006344393603621,2.613276526182816e-07,-3.9092217661423305e-07,2.6080504083676344e-08,11590,-7.121233,3.98016,4.451677
-0.1033083575887595,1.0793576833874965,0.2377375363158572,-0.0001489790380729,0.0005873636461841,0.0007404640360049,3.7944482440919197e-07,-3.485164060445988e-07,-1.2623394019985818e-07,11591,-7.144815,3.982545,4.449005
-0.0756039631958669,0.9300724566075392,0.2058502648379269,-0.0001851413257142,0.0005954009957453,0.0008269615995816,4.821824736917888e-07,-4.142140965046618e-07,-2.502627996643816e-07,11592,-7.184626,3.980867,4.382093
-0.0643154709653251,0.7337006081084911,0.1677286287475957,-0.0001902280026242,0.000603423095967,0.0008875587273517,5.381041737421044e-07,-4.81078033104101e-07,-3.882279414649047e-07,11593,-7.301593,3.960213,4.170946
-0.0307178879216208,0.5631545642341091,0.1532433266894969,-0.0001697825095086,0.0006113038649921,0.000919018887959,5.680509982840371e-07,-3.98312233248138e-07,-5.753509325677047e-07,11594,-7.316443,3.983236,4.38681
0.0202585269336597,0.3721944054627696,0.1530291218276645,-0.000120938827589,0.0006193077361311,0.0009205544364289,6.013964640314774e-07,-3.534273223395111e-07,-7.052582655286843e-07,11595,-7.284846,4.05793,4.579318
0.0396122133261685,0.1791820951311118,0.1527324380962988,-4.031311894746163e-05,0.0006276043856449,0.0008937823808173,6.489365005699887e-07,-5.98552514044574e-07,-7.163096484307217e-07,11596,-7.273004,4.168155,4.667949
0.0512608604653803,-0.0074355275085235,0.1334394899596194,8.114222815921329e-05,0.0006364859925001,0.0008441331699047,7.01521378611014e-07,-9.631681832453234e-07,-6.957630578201736e-07,11597,-7.210275,4.316489,4.713923
0.079559945510579,-0.2034893647633022,0.085464986651506,0.0002423365523989,0.0006460645583854,0.0007765088702756,7.617740021008616e-07,-1.1806999553489275e-06,-6.853228562116447e-07,11598,-7.124346,4.49877,4.711782
0.0538142588933194,-0.3885145018771218,0.0305759882014329,0.0004306364075574,0.0006562222594566,0.0006959747595019,8.266644045189562e-07,-1.3271833896093733e-06,-6.243324584932471e-07,11599,-7.014874,4.707889,4.694791
-0.0330186653577811,-0.5625675118891766,-0.0176275800679622,0.0006326555675699,0.0006669224295714,0.0006119076827032,8.905111836706645e-07,-1.445701822504514e-06,-5.666091587607179e-07,11600,-6.884546,4.950341,4.701326
-0.081380792971119,-0.7306406086395609,-0.0651289350634065,0.0008289491933122,0.000678120450517,0.0005381094638867,1.0120962747050934e-06,-1.2945501438586182e-06,-6.535110241128362e-07,11601,-6.727347,5.21852,4.669034
-0.0634385900458563,-0.8950445030969952,-0.1148143064421402,0.0010092858223129,0.000689777657901,0.0004814829916158,1.2439623613025663e-06,-8.471661725748084e-07,-8.233442308703583e-07,11602,-6.548952,5.497897,4.581645
-0.0398355239237108,-1.0612034081288386,-0.1610880446744177,0.0011744579204917,0.0007018984469923,0.0004419764003569,1.5429669918591253e-06,-4.519050702075169e-07,-8.903833179583215e-07,11603,-6.425807,5.698477,4.570463
-0.0263233260529069,-1.2268644436911649,-0.2052051815378124,0.0013252412061583,0.0007144586570003,0.000418124965282,1.850783459036592e-06,-2.819710553173533e-07,-8.961016025888756e-07,11604,-6.187084,5.811511,4.443311
0.0028660907953776,-1.378261825413206,-0.2737745135044822,0.0014675945653374,0.000727420332159,0.0004034456625506,2.1496385456344888e-06,-1.5819405532528718e-07,-1.0233526507968257e-06,11605,-6.016632,5.847814,4.190003
0.034643834512898,-1.5065284937694423,-0.3949006571525377,0.0016059089317187,0.0007407777773262,0.0003943783179301,2.412797389775585e-06,-5.798478167230049e-09,-1.2486176166709369e-06,11606,-5.8835,5.809577,3.942509
0.0565463269155757,-1.6176035092942114,-0.5343794137817803,0.0017426201769277,0.0007545535726941,0.0003903638925626,2.5427636142707617e-06,-1.4626147794005581e-08,-1.393405135893162e-06,11607,-5.772455,5.713983,3.612078
0.0833257655995917,-1.7195100226982345,-0.6222885245054097,0.0018866951235883,0.0007687946550409,0.0003864695620998,2.4180038752173937e-06,-2.554393627550825e-07,-1.412157482044409e-06,11608,-5.587079,5.598305,3.607525
0.1040126993646871,-1.81339495737538,-0.661658124240215,0.0020530784844424,0.0007835892126389,0.0003746420248934,2.0621621574940554e-06,-5.493820713457267e-07,-1.386129444372338e-06,11609,-5.38171,5.497009,3.782992
0.1181478258871159,-1.9022282225112908,-0.7005769173137841,0.0022474401564477,0.0007988986290678,0.0003511588658693,1.624116539687293e-06,-7.944276766341676e-07,-1.2947192294508344e-06,11610,-5.183455,5.436819,4.049428
0.1625557829557206,-1.991004984600049,-0.7390623110648196,0.0024664674979698,0.0008145404831651,0.0003160675975644,1.1858521104147078e-06,-1.0703505180348777e-06,-1.0562099234930598e-06,11611,-4.945464,5.430589,4.416297
0.2325290268316889,-2.077274468384614,-0.7666054510425206,0.0027047116835373,0.0008302653841292,0.000270376121749,7.85501224235693e-07,-1.3981810443738976e-06,-7.777166117218149e-07,11612,-4.705908,5.47399,4.640789
0.2853962986785935,-2.1500899862985934,-0.7997053563837003,0.0029498567321791,0.0008456852317842,0.0002181544987829,5.079714933552946e-07,-1.6285931363402176e-06,-6.491283118246552e-07,11613,-4.44439,5.523231,4.909084
0.3009929888400168,-2.2056215742559995,-0.8408221202556738,0.0031934378660653,0.0008603366711054,0.0001601471300508,3.875971583697633e-07,-1.6285394563826026e-06,-6.435418218006814e-07,11614,-4.172004,5.581409,5.190738
0.2601163626649233,-2.2479536855447915,-0.8578537611757101,0.0034308399700746,0.0008736446781792,9.349026935988008e-05,3.433871778132948e-07,-1.4767291893095085e-06,-5.876244055546183e-07,11615,-3.891454,5.645827,5.419865
0.1612623744437973,-2.2763238428866672,-0.8487436335220689,0.0036514343555855,0.0008847747940176,1.645255412804496e-05,2.749783702589113e-07,-1.3603896889010565e-06,-4.3611639163931125e-07,11616,-3.581017,5.71268,5.575089
0.0725386194292729,-2.2924812355071182,-0.8700717868781643,0.0038401922696252,0.0008925726026576,-7.323977478431058e-05,1.397044627658714e-07,-1.3304095388915035e-06,-3.016038466005136e-07,11617,-3.2474,5.809142,5.646263
0.0484603128637081,-2.301754669478105,-0.9219766636329249,0.0039888434124759,0.0008963860744651,-0.0001770258625197,-1.1126408099051237e-07,-1.2584857561300728e-06,-2.321749381630961e-07,11618,-2.771572,5.899558,5.857154
0.0561863546316274,-2.300696167612568,-0.9609816124840214,0.004095278060195,0.0008960850812184,-0.000294950638033,-5.379075982523487e-07,-1.0362777784047911e-06,-1.3191861938868613e-07,11619,-2.336999,6.009435,5.818344
0.0704148946218772,-2.2859484864686177,-1.023684322396793,0.0041593074401654,0.0008916253784339,-0.0004274921875104,-1.057654960720728e-06,-7.077799619115733e-07,3.0375336376538445e-08,11620,-1.913104,6.107056,5.898968
0.0971090721569681,-2.268020010164114,-1.1228452119085768,0.0041860384872838,0.0008833132818592,-0.0005750146236362,-1.489205513159469e-06,-3.577955327022499e-07,1.7939750326307986e-07,11621,-1.424609,6.186191,6.141495
0.1091538929135848,-2.24990520016269,-1.166465889127521,0.0041768773148682,0.0008712778612288,-0.0007374856449719,-1.7967965563865489e-06,-1.2400081261692968e-08,3.322355756301025e-07,11622,-0.920173,6.253313,6.226759
0.0911935683189866,-2.216649394077636,-1.1282330259667563,0.0041295062901329,0.0008554649881286,-0.0009145805577141,-2.0840218783225017e-06,3.328805780117917e-07,5.606229711850851e-07,11623,-0.467067,6.273775,6.366153
0.0640119803985447,-2.166931730209805,-1.0812367756350856,0.0040454423582373,0.00083615618964,-0.0011052450018769,-2.3821427591257677e-06,6.208555868527037e-07,8.314715788058334e-07,11624,-0.063395,6.263792,6.586539
0.0494530910216916,-2.116458517093164,-1.058714142631449,0.0039283844053172,0.000813895613987,-0.0013074921371731,-2.6406199231913017e-06,7.289365424551107e-07,1.0725567017147845e-06,11625,0.229169,6.281068,6.72573
0.052832727292655,-2.0708610987663856,-1.074130589917884,0.0037801849625261,0.0007889100229154,-0.0015209970819701,-2.8902772196999056e-06,6.99208089311901e-07,1.2837088409244932e-06,11626,0.632049,6.346486,6.873603
0.0662886816040038,-2.023785218490576,-1.1311899134293482,0.0036017331086684,0.0007611547681666,-0.0017471876781181,-3.2203954816264924e-06,7.162662357362112e-07,1.5235334706682465e-06,11627,1.209393,6.42586,6.978746
0.093976894958799,-1.9656843492485936,-1.1557024632507191,0.0033941050974356,0.0007305605736495,-0.0019879339465756,-3.598929534597461e-06,8.027959605008111e-07,1.7944245337577731e-06,11628,1.645743,6.523228,7.086707
0.1305639604583846,-1.896602127179725,-1.0963143411552407,0.0031578614339432,0.0006968829985079,-0.0022464354406924,-3.900109269121981e-06,8.893319000873416e-07,1.995374304805152e-06,11629,2.031621,6.644842,7.014396
0.1565737744633776,-1.8354901498560572,-0.9946337844190009,0.0028980427244141,0.0006602089170569,-0.002525787227937,-4.119196670810948e-06,9.672458890441348e-07,2.081764670819385e-06,11630,2.249074,6.768364,6.791761
0.1663114130876538,-1.7896532863154229,-0.8990298343210161,0.0026250500691391,0.0006210095556337,-0.0028291059597264,-4.34938642712039e-06,9.907368889816475e-07,2.123581495422455e-06,11631,2.369968,6.890398,6.599011
0.1522765120780369,-1.7340714840188909,-0.8213502266803375,0.0023527315973016,0.0005798153557264,-0.0031612788238088,-4.538023156704728e-06,8.662469619884608e-07,2.1691459172364905e-06,11632,2.445898,6.998778,6.435166
0.1365607741903601,-1.6520749854735024,-0.7516150874026356,0.0021010273901285,0.0005373984379817,-0.0035290353986952,-4.5317003620767645e-06,5.302648673513429e-07,2.196332707495646e-06,11633,2.445783,7.112893,6.130656
0.1745868673652372,-1.5597154078269106,-0.6818271673581313,0.0018792034955563,0.000494175941894,-0.0039359183753517,-4.361542864656496e-06,1.4300814267611944e-08,2.1690743551420563e-06,11634,2.426987,7.265834,5.734917
0.2488998138226941,-1.4693446773837149,-0.6121500630313434,0.0016847543595295,0.0004501537231241,-0.0043822081945254,-4.246943512601738e-06,-5.77250910457909e-07,2.135545728795152e-06,11635,2.369184,7.455376,5.399932
0.2874589891985522,-1.3776128701168422,-0.5396342255528118,0.001513013051934,0.0004053454855832,-0.0048673085629016,-4.305225493852523e-06,-1.1309915609237832e-06,2.2016175379223653e-06,11636,2.28503,7.722389,5.001479
0.2844776101812761,-1.286210129797236,-0.4586754589500438,0.0013513364757227,0.0003595781047894,-0.0053880644531268,-4.440454959314222e-06,-1.468260258202502e-06,2.3425611120298988e-06,11637,2.433244,8.011455,5.029527
0.2930623666277111,-1.1903001602155414,-0.3603685998497005,0.0011881395643679,0.000312788723571,-0.0059420162043271,-4.5934883591204286e-06,-1.474967667830111e-06,2.445365538686425e-06,11638,2.68499,8.329761,4.873808
0.3637501940467612,-1.0783358368796163,-0.2457418934524526,0.0010124217779026,0.0002650520088248,-0.0065272377519705,-4.83955421867916e-06,-1.277567030391555e-06,2.5034488239325306e-06,11639,2.92939,8.702195,4.724729
0.483099774096058,-0.9600942934643578,-0.1439938680604814,0.0008027621796655,0.0002162575921184,-0.0071388765704448,-5.108396996854539e-06,-9.880509117698789e-07,2.54067731372552e-06,11640,3.166412,9.109642,4.821653
0.5428719554402192,-0.8605567440088895,-0.0756829957507813,0.0005271936422774,0.0001661634404794,-0.007769307601577,-5.149917622577407e-06,-5.802618483898161e-07,2.477204516582588e-06,11641,3.293525,9.604108,4.758109
0.5112650231833205,-0.7769528766270776,-0.0133490658231217,0.0001818829830781,0.0001150111807452,-0.0084108121756439,-4.8365345804552665e-06,-1.9301592423008141e-07,2.237139087300448e-06,11642,3.456756,10.164942,4.638221
0.4824942272943402,-0.6674366381260715,0.0663323943305654,-0.0002065410834083,6.356171651311632e-05,-0.0090546115053575,-4.221249812273754e-06,-1.309712446490993e-07,1.8716590772117069e-06,11643,3.511708,10.824863,4.62163
0.3879213579271348,-0.5321756173564758,0.1427857583626304,-0.0005968621819619,1.2905767263973072e-05,-0.0096886660088704,-3.361126639170556e-06,-5.048824343630386e-07,1.47755908777086e-06,11644,2.988005,11.678133,3.678727
0.1807789077588468,-0.4280806280061571,0.2044440807147145,-0.0009176672986818,-3.526535969324854e-05,-0.0102972197178062,-2.29346018011544e-06,-1.1174808986420135e-06,1.0707025049690836e-06,11645,2.010052,12.710828,2.45803
0.1144334516967279,-0.3509032566416009,0.268892953665914,-0.0011432836120658,-7.894794879035725e-05,-0.0108561916919282,-1.1537091189278978e-06,-1.6363296933229933e-06,6.360017340965044e-07,11646,1.228937,13.899292,1.721653
-0.0101946499278699,-0.2754299334863772,0.3375938507965645,-0.0012982902618584,-0.0001156543761776,-0.011330502243264,-1.459575736960033e-07,-1.7543113175094742e-06,2.2843726201775018e-07,11647,1.056303,15.272934,1.504534
-0.8213664612373701,-0.2642401509107388,0.3923954589178056,-0.0014101442905248,-0.000141801383201,-0.0116726137367663,6.670312561440483e-07,-1.307700085119836e-06,-1.0820052850182819e-07,11648,1.007886,16.816765,1.52152
-1.9533969558661213,-0.3611198225350118,0.4275173012317187,-0.0015336290421314,-0.0001524518014798,-0.011817019140127,1.422856210660125e-06,-3.867019302858563e-07,-4.430186855078859e-07,11649,0.979303,18.414839,1.721527
-2.457471021929715,-0.4836464309461074,0.4460048761891661,-0.0016878775599535,-0.0001448496564901,-0.0117296691193493,2.2476561430185843e-06,6.450004872675203e-07,-8.443356115337189e-07,11650,0.884206,19.922868,1.451746
-2.445340132564796,-0.5369530877980042,0.4607540253652329,-0.0018499535211197,-0.0001185157561329,-0.011410459790459,3.087220672507799e-06,1.356186853345368e-06,-1.25195236574516e-06,11651,0.632463,21.228355,1.111094
-2.4753474602847936,-0.6084073877427039,0.4874595631645328,-0.0020036238823938,-7.338520068231799e-05,-0.0108664323636328,3.799191933958119e-06,1.5988358682254911e-06,-1.579805538443336e-06,11652,0.235696,22.333163,0.720279
-2.4420612792914578,-0.863919707449005,0.5108120178695685,-0.0021200202777177,-1.0961450999077526e-05,-0.0101287606240683,4.332142764952182e-06,1.5340259345903196e-06,-1.8574895840791024e-06,11653,-0.215394,23.34109,0.285835
-2.2728497443773734,-1.2002318377433192,0.5159582591354153,-0.002187276463595,6.792964584375922e-05,-0.0092241982786301,4.722917418539462e-06,1.3337600095516272e-06,-2.15416573696012e-06,11654,-0.551002,24.138841,-0.081038
-2.18061187851842,-1.331287391902864,0.508052045366335,-0.0022165386729876,0.0001631343638275,-0.0081765315909368,4.95455443482368e-06,1.1037314750382222e-06,-2.432434734910381e-06,11655,-0.843953,24.689601,-0.311308
-2.085605130729608,-1.236417766407636,0.4724166191431536,-0.0022132932859773,0.0002728978950305,-0.0070396656431518,4.963321584719755e-06,9.90965646976695e-07,-2.6184778459513887e-06,11656,-1.007717,25.024523,-0.35028
-1.9257646099433257,-1.1161215630879002,0.4033887749925623,-0.0021872699397173,0.00039411978139,-0.005897336396076,4.793554772069556e-06,1.0685281433664814e-06,-2.733502004534554e-06,11657,-1.211487,25.310024,-0.462264
-1.8174222914382796,-1.017067936253683,0.3431708993200774,-0.002142471349038,0.0005248047649581,-0.004794557077002,4.571601985943065e-06,1.126073135117542e-06,-2.765071742750936e-06,11658,-1.325427,25.578066,-0.63053
-1.6819572056063687,-0.8834523267576911,0.3434529952120446,-0.0020737511561868,0.0006637629021186,-0.0037395271400007,4.322884129472337e-06,8.556848685084255e-07,-2.5865158442521897e-06,11659,-1.408963,25.822473,-0.460555
-1.4346895331811376,-0.7198357823645629,0.4169123911935813,-0.0019792422033505,0.0008093888228592,-0.0027380168311307,4.003472885393203e-06,2.572990744701769e-07,-2.1949922465523995e-06,11660,-1.303884,26.0592,-0.002958
-1.1421051021832684,-0.5425829879275959,0.5232478975896457,-0.0018566801749977,0.0009601254541619,-0.0017740631565515,3.661219887318565e-06,-4.003099194652669e-07,-1.798814507901044e-06,11661,-1.479284,26.208709,0.035235
-0.8390666756479797,-0.3680996601606829,0.5890991219567575,-0.0017056057926352,0.0011120003708239,-0.0008622680356591,3.3507738961799245e-06,-9.659964650314623e-07,-1.5690155591007973e-06,11662,-1.652488,26.145832,0.014454
-0.5683226325589072,-0.1664331460567845,0.5606346201821939,-0.0015290363125339,0.0012580331135165,-5.277063640461103e-05,2.982353168896072e-06,-1.5196473642569863e-06,-1.4530466508608825e-06,11663,-1.790352,25.899625,0.055231
-0.4211086248597853,0.0937191551288888,0.463238940514866,-0.0013297563865907,0.0013891541800192,0.0006073680606607,2.434671646724357e-06,-2.0754235684929266e-06,-1.2980766539406634e-06,11664,-1.859623,25.616177,0.046606
-0.3484110658571239,0.3145017973306201,0.3891034691089397,-0.0011116844653006,0.0014927338484474,0.001057731354881,1.705025915793994e-06,-2.495657092835323e-06,-1.0498939623538423e-06,11665,-2.034766,25.320525,0.048509
-0.1696339281590396,0.4183284715089841,0.409375226674608,-0.000877201236894,0.0015618033551791,0.0012614331424632,8.738694361537707e-07,-2.830628407705202e-06,-7.06322089197827e-07,11666,-2.123946,24.99405,0.171787
0.127672477127399,0.4897081038246882,0.5051033998390762,-0.0006266458718852,0.0015955603400443,0.00121124593777,4.080249120378598e-08,-3.2821582927829536e-06,-2.4997738975221224e-07,11667,-1.841509,24.709154,0.839009
0.3943905716695695,0.5822306726141673,0.5989543669081179,-0.000360779965392,0.0015939355226081,0.0009009115795283,-7.042701759097783e-07,-3.782981591150291e-06,2.786630948098364e-07,11668,-1.393051,24.436675,1.489575
0.5830927791276773,0.6533227360398368,0.645931243917514,-7.988077454646814e-05,0.001560637814516,0.0003387474524022,-1.3046086594135445e-06,-3.976723041231275e-06,7.482811777790885e-07,11669,-0.963588,24.177864,1.939984
0.7732572219048617,0.729216343941204,0.6561774794583654,0.0002145966714481,0.0014978332848169,-0.0004649745622131,-1.713262943187939e-06,-3.648162933096557e-06,9.956693087519157e-07,11670,-0.451708,23.937261,2.380664
0.9466661223655152,0.7987265687090838,0.6473954334074996,0.000519618361448,0.001406069073234,-0.0014976682474581,-1.9214007287105446e-06,-3.069640387759198e-06,1.0619615978413814e-06,11671,-0.114519,23.704233,2.498192
0.9774867744128032,0.8294501435660004,0.5943045607674473,0.0008319499186778,0.0012899413468238,-0.0027227523109402,-1.989691324952945e-06,-2.6541328069573983e-06,1.2290836188843709e-06,11672,0.137158,23.542358,2.456767
1.1091168898432835,1.076620921413696,0.5601204192035348,0.0011474468424024,0.0011575082321036,-0.0040773927870434,-1.928800529700089e-06,-2.3810024947647307e-06,1.60945609816568e-06,11673,0.285208,23.502466,2.111515
1.7760950727565077,1.7547831716316802,0.7665729562913983,0.0014621413066004,0.001012681013886,-0.0055200782878161,-1.6822458525620096e-06,-2.0453648828312767e-06,2.052704287652127e-06,11674,0.614982,23.630967,1.77206
2.735644528058982,2.5266203210713805,1.182334337207367,0.0017722400110793,0.0008557145485527,-0.0070271088698351,-1.2658180214062936e-06,-1.6316676316184346e-06,2.436620901628478e-06,11675,0.94558,23.961806,2.338353
3.318461240308608,2.9412042983815745,1.430874691170338,0.0020727910841822,0.0006867058072715,-0.0085639066157147,-7.618647895752907e-07,-1.014988005151865e-06,2.724574123517928e-06,11676,1.166666,24.478945,2.28346
3.4209276637601747,3.027877220977357,1.370296342759456,0.0023577194785043,0.000503607257568,-0.0100943982169984,-1.8616796103040408e-07,1.033790882055381e-07,2.8785809431598384e-06,11677,1.210248,25.199362,2.138311
3.372188610040364,3.0234885630630184,1.2218221584014346,0.00260773111637,0.0003085940976594,-0.0115387632962634,5.785620003817426e-07,1.816618103705657e-06,2.832359284616168e-06,11678,1.771052,26.183292,2.696431
3.188807521776334,2.932926898779343,1.1318226376471006,0.0027872539749799,0.0001087992535979,-0.01276143858357,1.672530604208008e-06,4.003466341755438e-06,2.5656899809499525e-06,11679,2.29797,27.47633,3.040859
2.978545671710995,2.710376673679741,1.0460241655436602,0.0028467953241904,-8.781498182248217e-05,-0.0135866880950535,3.1492192478783616e-06,6.623786313164527e-06,2.1455181656255425e-06,11680,2.814319,29.062182,3.050802
2.949158313856367,2.4612786540325664,0.9136495221526894,0.0027147562603861,-0.0002701107848921,-0.0137714801952976,5.0142627609429925e-06,9.683718462485167e-06,1.6345144313255577e-06,11681,3.23106,30.887508,2.620255
2.3533970640586537,2.267849765492544,0.7597607478364425,0.0023566585980637,-0.0004311865567939,-0.0131432669063875,7.1748001606739655e-06,1.2945726400087791e-05,1.0899527379660749e-06,11682,3.541821,32.936897,2.045712
0.6285357031047686,2.0964212932641493,0.586965727697504,0.0017782930692397,-0.0005690157508322,-0.0116019584046357,9.452388964060529e-06,1.6097385428946038e-05,5.089444970240184e-07,11683,4.204789,35.064013,1.679066
-1.0440932424430729,1.602584267815994,0.3535694713718835,0.000992198749686,-0.000681075312082,-0.009026608294016,1.1810960560394162e-05,1.9068014044218497e-05,-2.648821474653041e-07,11684,4.596104,37.187372,1.560073
-1.5009787703469577,0.3139573553684882,0.1138478585144037,3.7657223040141446e-05,-0.0007666414174942,-0.0053107743071959,1.4313092124724112e-05,2.1706163592034e-05,-1.3488751831340372e-06,11685,3.875405,39.228443,0.790152
-1.290064429351752,-1.339501734385908,-0.0089648479156666,-0.0010530814862558,-0.0008228680940499,-0.0004594749804733,1.6833449729711543e-05,2.3601664374597373e-05,-2.682035167305444e-06,11686,3.190143,40.708456,0.411327
-1.2166709175033448,-2.2187566137640564,-0.0271479745643068,-0.0022540360322762,-0.0008441697111661,0.0053946699516774,1.9043802828024485e-05,2.4450715979612164e-05,-4.106554493780954e-06,11687,1.235862,41.377138,-2.370659
-1.1811021817911815,-2.109769352430958,-0.0171302417277953,-0.0035074621908439,-0.0008258891788153,0.0119824678857349,2.058556085614256e-05,2.400733293611409e-05,-5.329783117777696e-06,11688,-1.625013,40.396632,-5.908509
-1.0706785482526968,-1.8029157246408396,0.0273556710257734,-0.0047255577488153,-0.0007631140953738,0.0188303661835519,2.112503603080612e-05,2.187588463267705e-05,-5.944736406903775e-06,11689,-3.348897,38.224681,-7.137797
-0.9772813957288784,-1.6758660579810525,0.1142660881280286,-0.0058580473450059,-0.0006555028713117,0.025617881580733,2.0416971357142137e-05,1.7934404897195905e-05,-5.762676485120142e-06,11690,-3.961595,35.420169,-6.733672
-0.9008855461867448,-1.557714941569492,0.2111536050745625,-0.0068894468419354,-0.0005085596014403,0.0321643936995181,1.850858606681603e-05,1.272652772319333e-05,-5.002580827276879e-06,11691,-4.556579,31.714242,-5.997181
-0.8264195467174802,-1.3782177731580123,0.2949913091951991,-0.0078058343547369,-0.000331411587476,0.0381729711385273,1.5742882782463702e-05,7.036652899301329e-06,-4.014099659677011e-06,11692,-5.364686,27.001796,-5.690586
-0.4519199183331691,-0.92090827729526,0.3565284413793289,-0.0086132867149554,-0.0001396429723334,0.0432986727219491,1.2368732043777234e-05,1.3563961504171324e-06,-3.001234762370017e-06,11693,-6.30734,21.691342,-5.767448
0.3479966715677843,0.009069048285333,0.4005256024583553,-0.0092768698058281,4.4903374371996565e-05,0.0472233825135532,8.27884935242051e-06,-3.9798024719617845e-06,-2.0574559773986494e-06,11694,-7.022783,15.980843,-5.639573
1.0920327155969063,0.9936342157099876,0.4566234798127714,-0.0097133232924533,0.0001917450485857,0.04962516134963,3.248401148144028e-06,-8.648880525110229e-06,-1.2596055229274446e-06,11695,-7.720253,10.022598,-4.702779
1.5478777259099634,1.4864608166236146,0.5511812949359376,-0.0098301222692109,0.0002558454842535,0.0501767687808144,-2.693452195394781e-06,-1.2495640374573174e-05,-6.865656966999245e-07,11696,-8.505619,4.080141,-3.311014
1.911199858576832,1.4558881150310032,0.6497535656599711,-0.0095025366684712,0.000173107931056,0.048551964338906,-9.10413994240943e-06,-1.5363869174333826e-05,-4.485800995471236e-07,11697,-9.483858,-1.837269,-1.353802
2.159751457646746,1.290955279062973,0.64756792963065,-0.0086667918714606,-6.789143521043783e-05,0.0446650919512553,-1.5207996479826953e-05,-1.695925980440398e-05,-6.757894483038546e-07,11698,-11.355452,-7.245334,1.957081
2.259463327506158,1.3080854556600228,0.5363434117734079,-0.0073298850920287,-0.0004198176276952,0.0387214671109923,-2.020143193504334e-05,-1.729855882288331e-05,-1.3458910431217446e-06,11699,-13.525466,-12.205776,3.932873
2.390192865852724,1.4803874061955975,0.4802422194908146,-0.0055112446497558,-0.0008088092708957,0.031159701939054,-2.349736477957056e-05,-1.6902671855596634e-05,-2.136232360480733e-06,11700,-14.812885,-16.660088,3.750115
2.4714665939536,1.670687637932572,0.5073693761991028,-0.0032768570112948,-0.0011048375605499,0.0227993529299118,-2.476092079516783e-05,-1.6233906982038402e-05,-2.552582255112139e-06,11701,-15.222659,-19.205399,2.972834
2.3010999871804705,1.6922244591507565,0.4859589760033106,-0.0007679868788345,-0.0012426499513318,0.0142718271835027,-2.407371732872895e-05,-1.5387752281987545e-05,-2.2767718898882885e-06,11702,-14.686997,-19.609774,1.686703
2.0458614831629545,1.394335193504035,0.4316535248049983,0.0017798934587021,-0.0012263846599499,0.0060564590147184,-2.209577681733475e-05,-1.441995695977024e-05,-1.4511600518981643e-06,11703,-14.390225,-18.14438,1.86495
1.8606826481099452,0.961264581708622,0.3034653401983921,0.0041050881076595,-0.0010458434233003,-0.0012692090696355,-1.9757259504949112e-05,-1.3498818440276402e-05,-5.231253723691394e-07,11704,-13.057797,-15.405631,2.125489
1.5786754184017098,0.623420548321331,-0.064764937286347,0.0058924994329414,-0.0007097440997881,-0.0071442781903651,-1.7728942030043853e-05,-1.270812609377768e-05,2.03534499421734e-07,11705,-8.619957,-15.561619,-2.677376
1.1176840233705116,0.4306615409199275,-0.5339015763927835,0.0070249656933536,-0.000255505392288,-0.01128064893276,-1.627377712942195e-05,-1.1992614922713384e-05,6.912548156865261e-07,11706,-9.295697,-13.129143,-0.818203
0.6920651793984137,0.5443761630659656,-0.8518091298228976,0.0076255586845713,0.0002496561127031,-0.0137092330790545,-1.544032055183096e-05,-1.1339871721742268e-05,9.830768317942146e-07,11707,-9.515215,-10.38479,1.723503
0.5755007958753213,0.9739158972137992,-1.060295621537254,0.0077759820244577,0.0006768269272744,-0.0146763081891931,-1.5034596233595558e-05,-1.0805459551187154e-05,1.1764377449214577e-06,11708,-9.078022,-7.897082,4.36312
0.6437491125703081,1.260477136717815,-1.2621786350243267,0.0076046537926972,0.0008173434924044,-0.0147955444720661,-1.4504920254378055e-05,-1.0328168042640262e-05,1.5139946583762128e-06,11709,-7.998188,-6.030468,5.009923
0.4529690410312241,1.1745996362053115,-1.477055027235528,0.0072101359808217,0.0006119000192866,-0.0143887908952051,-1.335480767509115e-05,-9.744010976839206e-06,2.181075787503721e-06,11710,-6.706655,-4.474065,4.945315
-0.0011521057609178,1.0321502493927053,-1.718814504067236,0.0066273379495375,0.0001604576547764,-0.0134902357927506,-1.1666879634550285e-05,-8.979932824778606e-06,3.0068341824683807e-06,11711,-5.505944,-2.989232,4.398907
-0.3246916492824785,0.9663944337396376,-1.8496069047898305,0.0059327374467459,-0.0003935236460122,-0.012330911422522,-9.92599882993542e-06,-8.139706298599405e-06,3.675934866555281e-06,11712,-4.596951,-1.849852,2.976239
-0.3901303613849933,0.8753508643578867,-1.7091616844390636,0.0052161777674656,-0.0007827111237351,-0.0111989006558967,-8.466855183887799e-06,-7.383594148970275e-06,4.093851349974287e-06,11713,-3.881842,-0.742218,1.62242
-0.2898850157001908,0.7966548920490142,-1.4541728181690838,0.0045364692849388,-0.0009059773640334,-0.0102697258475099,-7.349575992069328e-06,-6.712225846232399e-06,4.302339613450532e-06,11714,-3.286299,0.248167,1.602594
-0.0334680762341797,0.7170648447150073,-1.314026445648927,0.0039278801383875,-0.0008478173310039,-0.0096443408919541,-6.5561876596182e-06,-5.969844851930492e-06,4.29735889458602e-06,11715,-2.697938,1.131648,2.174059
0.2903236594170927,0.5951272643560487,-1.2507165196078716,0.0033937657336243,-0.0006781364689975,-0.0093285525462082,-6.01526105601146e-06,-5.160483192861755e-06,4.094904797066991e-06,11716,-2.425828,1.925279,1.618266
0.4687051694593634,0.4678093312237403,-1.1295164015188073,0.002889607960147,-0.0005405081248041,-0.0091789046629806,-5.572239771735027e-06,-4.659380525198076e-06,3.846701662139881e-06,11717,-2.392556,2.586125,0.65211
0.4914268945144868,0.3410918555418437,-0.9369751152101918,0.0024135300803868,-0.0004978260560124,-0.0091654129608872,-5.080637130645805e-06,-4.7816428128454405e-06,3.7305860652429194e-06,11718,-2.341545,3.125075,0.684401
0.4681060353642706,0.2400798905048516,-0.7870930079566796,0.0020032970467753,-0.0005103576724405,-0.009358220643305,-4.517259854990484e-06,-5.252680146172547e-06,3.752995812580356e-06,11719,-2.274179,3.651921,0.799961
0.4030690048371507,0.1906530990366893,-0.7320041259658565,0.0016747225826791,-0.0005795005319046,-0.0097422561575457,-3.975068125879539e-06,-5.575218175811529e-06,3.813835510458927e-06,11720,-2.208004,4.18831,0.414458
0.3341873896247004,0.1640877397276161,-0.6864164814171116,0.0014407830881633,-0.0007034010010877,-0.0102652960971641,-3.472387313840538e-06,-5.636273361869912e-06,3.853127131755336e-06,11721,-2.136857,4.801095,-0.038932
0.2506369198321364,0.1345062929899427,-0.6214974923250549,0.0013128121449966,-0.0008778409084161,-0.0109218931948006,-2.8838503687325056e-06,-5.5751100693966615e-06,3.86254140262491e-06,11722,-1.990584,5.523175,-0.418553
0.0570264222529656,0.1034255821754572,-0.5678404465090545,0.0012931417769051,-0.0011107083355076,-0.0117358021913173,-2.118549986640298e-06,-5.372756211029998e-06,3.819640813157487e-06,11723,-1.837928,6.405036,-0.911693
-0.1255226429228437,0.0886767789806686,-0.5154796539021478,0.0013856698874498,-0.0013869905384644,-0.0127482624390173,-1.20856593489966e-06,-4.85892906799266e-06,3.63976387951131e-06,11724,-1.65361,7.461801,-1.451192
-0.0926712742557637,0.0614693213667006,-0.4597723608549954,0.0015932479897081,-0.0016703348737016,-0.0140382666916529,-1.765019300307715e-07,-4.021182937359147e-06,3.307886102550213e-06,11725,-1.412575,8.64411,-1.770494
0.060033646133254,0.0125708911194019,-0.4091652038175716,0.0018961658732092,-0.0019235253852585,-0.0156128086353988,1.0752496325696076e-06,-3.038972722679528e-06,2.9285269647334623e-06,11726,-1.164118,9.943084,-2.150108
0.0891595158269374,0.1003680169396912,-0.371549351558988,0.0022487350012733,-0.0020996254390396,-0.0173999404091189,2.615987090916557e-06,-1.993277142628431e-06,2.548700108204841e-06,11727,-0.804159,11.318019,-2.562525
-0.0053012499204716,0.397474923617742,-0.3012475837643427,0.0025813505788135,-0.0021272625022075,-0.0193098149675329,4.316623852334088e-06,-7.714990025157936e-07,2.142984664781918e-06,11728,-0.55851,12.791669,-3.160717
-0.0713663939377003,0.6799743111003491,-0.095121281737968,0.0027871308768852,-0.001906440169865,-0.0211960803802758,6.021411752961775e-06,7.100165425202583e-07,1.7505120176847496e-06,11729,-0.366103,14.452739,-3.875925
-0.1004535740028529,0.7896841550335393,0.1694900576563057,0.0028123196153221,-0.0014034324962813,-0.0229577873167966,7.773956753562912e-06,2.4268197941399805e-06,1.4312503764407453e-06,11730,-0.172457,16.379384,-4.516991
-0.0875907664258111,0.8103383933912589,0.2895195552518325,0.0026594605307736,-0.0006568407120965,-0.0245432012536998,9.713734943369351e-06,4.522962654916825e-06,1.0523611181868466e-06,11731,0.235712,18.588968,-4.85813
-0.0671557577081953,0.7920698808311044,0.3054463255202944,0.002333765642312,0.0002665783929242,-0.0258645374719928,1.1873789122300371e-05,7.365817979689609e-06,3.501230367247709e-07,11732,0.947699,21.224769,-5.517448
-0.1802608264287814,0.7057253891215858,0.3350224358514291,0.0018710516269879,0.0012352197992884,-0.0268202254350469,1.4118316814553622e-05,1.1113669861204156e-05,-6.447648577222223e-07,11733,1.271851,24.335181,-5.312987
-0.1988007485494851,0.6065704813866561,0.1698660734531727,0.001282324919767,0.0021057329844406,-0.027228537334699,1.6128513035988657e-05,1.541608788742595e-05,-1.496585056021361e-06,11734,2.053865,27.878707,-5.410141
-0.1469984883827654,0.5559047553871098,-0.378273868794556,0.0005497110997604,0.0027114382254606,-0.0267994890327204,1.757029709638958e-05,1.9673761628148352e-05,-1.8102959523245576e-06,11735,2.12721,31.722088,-4.707848
-0.9127392222776438,0.5229336271839882,-0.7369339782451102,-0.0003224684263158,0.0027854453825536,-0.025158863135133,1.85160694169098e-05,2.358258075846896e-05,-1.710422736756224e-06,11736,3.91881,35.263594,-2.741172
-2.5571027545588505,0.3163357293376838,-0.2606895326087882,-0.0013200735658474,0.001946557887015,-0.0217962301495228,1.9624564731606717e-05,2.723642022853317e-05,-1.8920554514542548e-06,11737,6.63706,38.542556,0.102136
-3.7391705304247127,-0.5981473493488036,0.3460877519007543,-0.0024328363786052,0.0001884065966568,-0.0165323783723673,2.1679982731325543e-05,3.064797621398739e-05,-3.1235006244745256e-06,11738,8.326895,41.247323,2.578546
-3.88287740517956,-2.4065820754585623,0.050949345262327,-0.0036475916479996,-0.0020765113557805,-0.0095608859031901,2.48518523969075e-05,3.342607184778033e-05,-5.584482558168891e-06,11739,5.248497,43.632149,-0.339316
-3.8521951996470194,-4.0837458642141335,-0.70587555799251,-0.0049480487402254,-0.0042156041268066,-0.0012141358766791,2.844000812404085e-05,3.4842530326681864e-05,-8.639627411782274e-06,11740,-0.088137,44.682665,-6.598799
-4.140998042884311,-4.5525362116387775,-0.9448740154925834,-0.0063148290498533,-0.0051635536372728,0.0078507071545619,3.122599384177377e-05,3.410632090315558e-05,-1.1150996506928603e-05,11741,-4.69093,43.446678,-13.008052
-4.327314581554599,-4.110755334460714,-0.6238692315842465,-0.0077013322813416,-0.0045875763299169,0.0171623443446243,3.1981356431703994e-05,3.075217672584535e-05,-1.2035375663858693e-05,11742,-6.350483,40.77601,-14.906334
-4.172270395700749,-3.699076398872757,-0.1209373818795993,-0.0090277836171766,-0.0029651877303018,0.0264288126198054,3.0041630438590637e-05,2.479498376823138e-05,-1.0826096960090896e-05,11743,-5.485456,37.510688,-12.476708
-3.728006256709452,-3.5413031993672845,0.3698071698688046,-0.0101846103974491,-0.0008925625809611,0.0350892056398825,2.5739575459131263e-05,1.680372913678967e-05,-8.012529460913706e-06,11744,-4.200345,33.655883,-8.445003
-3.040730527416683,-3.062977826537421,0.6293776083877265,-0.0110157617223783,0.0005184567999393,0.0423923815640012,2.0162187314405344e-05,7.999956553726226e-06,-4.808423851938539e-06,11745,-3.915189,28.85247,-4.844753
-2.413544068306883,-1.9470089075856296,0.6485128403463842,-0.0114327698486498,0.0008475984671727,0.047894423676215,1.4339195540909834e-05,-2.485648258644924e-07,-2.330060388212589e-06,11746,-4.144832,23.254689,-2.319078
-2.098755343838275,-0.7017606294147042,0.6211056266011923,-0.0114191141350272,0.000469881051707,0.051434280888613,8.658714184597287e-06,-7.133162905552896e-06,-9.515954017581984e-07,11747,-5.386798,17.163845,-1.391743
-1.6261320232485752,0.1200140655555042,0.5768692601499231,-0.0109627900866927,-0.000324726321474,0.0529524754353406,3.0032880515030347e-06,-1.2391902522459793e-05,-4.519499294832958e-07,11748,-7.171857,10.796398,-1.596756
-0.6044624224093659,0.5148045944442062,0.5486547138224648,-0.0100920114095621,-0.0009590495901101,0.0526465199233804,-2.816692742068589e-06,-1.593791352006569e-05,-4.7542024306023684e-07,11749,-8.605756,4.350294,-1.155566
0.1709510007707496,0.6553028783367476,0.5701701876333809,-0.0088221442082536,-0.0011781603320293,0.0505551082457422,-8.783226363801937e-06,-1.7763639802801734e-05,-7.331315563622204e-07,11750,-9.923643,-2.001823,0.16765
0.2446885273704155,0.8110473067796168,0.5978285602901935,-0.0071546789899211,-0.0011477507945641,0.0465637313605725,-1.4524909352525446e-05,-1.8121975731855483e-05,-1.0768445241700223e-06,11751,-11.386919,-8.283549,1.619387
0.5083244304376815,1.2862397538260524,0.7386799157095794,-0.0051388084656298,-0.0008691395113113,0.040761336650963,-1.945234577027123e-05,-1.753471153668308e-05,-1.4882370397207994e-06,11752,-12.055944,-14.405985,1.375784
1.309520909711465,1.8204332486656931,1.0114879139443855,-0.0028672151030145,-0.0003596370697268,0.0333732543948574,-2.3031242451014008e-05,-1.646903172238567e-05,-1.819592362233175e-06,11753,-13.004836,-18.753736,3.061996
2.001209313172369,1.9518975136983117,1.1042024294354833,-0.0004303450597637,0.0003317092641561,0.0247881618384798,-2.4897500086624786e-05,-1.525279427921672e-05,-1.7077633994796865e-06,11754,-13.290933,-20.633726,3.62797
2.250801704066975,1.83340040620334,1.0261162839463691,0.0020682887118934,0.0011781573279354,0.0156575017378765,-2.5041076141267963e-05,-1.4211215332905724e-05,-1.0278182943393896e-06,11755,-13.000461,-20.408528,4.035113
2.286382299846127,1.8667787343308853,1.1094959600004346,0.0044783166498739,0.0020349691185117,0.006750712171647,-2.4078940803568434e-05,-1.353806755203967e-05,-1.8868316022750584e-07,11756,-12.681516,-18.302862,6.425916
2.43026703699724,1.944498623251115,0.9997047444561852,0.0065973525545647,0.0026321651237814,-0.0009571529273162,-2.304399182621647e-05,-1.3188999857388776e-05,3.556538942440573e-07,11757,-8.354604,-16.77864,3.984137
2.6023626351742197,1.4981800532719622,0.2226418713377847,0.0083295485741929,0.002869818120555,-0.0069412157640833,-2.2440398330301305e-05,-1.302093368387677e-05,6.263024242492955e-07,11758,-8.816694,-14.301336,5.929461
2.3776945548696737,0.5988758741963106,-0.6441199790261022,0.0096931791347817,0.0028094317078058,-0.0112018807195092,-2.1815169063094484e-05,-1.2947185501541e-05,8.581322057724603e-07,11759,-8.998424,-11.37478,8.456043
1.7267655095714207,0.2654585435657209,-0.9046818533850908,0.0107006633423588,0.0025293838040888,-0.013918767399078,-2.066112022326972e-05,-1.2907200465732268e-05,1.1342057972306634e-06,11760,-9.405842,-8.519748,13.91336
1.1592433655116212,0.7552191424991135,-0.7932129064641277,0.0114077092454833,0.0022088452414906,-0.0157168043505916,-1.9026241162321077e-05,-1.2649745950727747e-05,1.581084391147599e-06,11761,-7.422469,-6.131011,15.304512
0.948324183829314,1.1273679986186331,-0.7061541502380841,0.0118180183983745,0.0019289539376245,-0.016857855835853,-1.7066558790948418e-05,-1.1812413520466163e-05,2.428122169045392e-06,11762,-5.097037,-4.222669,9.58257
0.8936739779613776,1.0409344698642549,-0.6452365675900307,0.0118671887659639,0.0016597647281601,-0.0172274911578775,-1.4868339682081346e-05,-1.0349956047780633e-05,3.5835168029663048e-06,11763,-3.465445,-2.371523,8.901157
0.7767401582330995,0.9439254030530192,-0.5949758985049158,0.0115136601613201,0.0014244000474201,-0.0169887381625774,-1.2860328399954908e-05,-8.646619139188206e-06,4.590343568457484e-06,11764,-1.9175,-0.826347,10.231543
0.5552108744579374,0.904655695012944,-0.5141098244303152,0.0107090772437487,0.001249148478955,-0.0164113059344656,-1.1692405641713964e-05,-7.148981580723169e-06,5.190187318891393e-06,11765,-0.39688,0.305952,10.799261
0.4084265049637724,0.8243615577522743,-0.353339527603377,0.0094826988047546,0.001130687687946,-0.015669835607644,-1.1335676089103582e-05,-6.022472683365501e-06,5.5225812553545965e-06,11766,0.501628,1.409965,11.046184
0.4837423617317736,0.8011571698910989,-0.2243151987502259,0.0079655592098766,0.0010482786487449,-0.0149160550983483,-1.1013280276770467e-05,-5.2526618749826456e-06,5.745434714346839e-06,11767,0.853289,2.421978,9.965195
0.6355045970192899,0.8047909635168456,-0.1553670953564982,0.0063434029186276,0.0009382225682102,-0.0142735885443548,-1.032410751973002e-05,-4.829926607042844e-06,5.876195839388039e-06,11768,1.482996,3.298913,10.27807
0.6273447748581893,0.7614711939793144,-0.0783340537410172,0.0049050590523309,0.0006798780100464,-0.0138065990125394,-9.558071275496314e-06,-4.62661288039525e-06,5.937773064607377e-06,11769,2.004853,4.114578,10.289492
0.4323725776361058,0.7099588142218697,-0.0177928555029494,0.0037900546567177,0.0002348955230083,-0.0136009808031118,-8.907452346758124e-06,-4.419433277247203e-06,5.965574657374623e-06,11770,2.072651,4.952841,9.588405
0.3318164350266041,0.6655014589826822,0.0009544845424888,0.0029746971863594,-0.0003513982502142,-0.0137525099531354,-8.186218047408633e-06,-4.123908304657389e-06,5.908447534251348e-06,11771,2.248276,5.778992,9.41274
0.4336956849207277,0.6158016510010036,0.0181538628311138,0.0024306675993431,-0.0010258194592999,-0.0142989854429833,-7.228185082397414e-06,-3.805116525058333e-06,5.6578130011121365e-06,11772,2.42085,6.669558,9.30659
0.4758764262802556,0.577382163999854,0.0289555479806803,0.0020452696906436,-0.0016851780382806,-0.015223362619089,-6.042289416977494e-06,-3.565495201941975e-06,5.215061751606517e-06,11773,2.154291,7.737484,8.831534
0.436538497460722,0.5338103813558093,0.0395513968334432,0.0017709616075423,-0.002258464396855,-0.0165105912050299,-4.638002674108457e-06,-3.481780497840191e-06,4.736641564289706e-06,11774,1.988438,8.961052,8.296807
0.4537152465043029,0.4841995383535104,0.1425906733548836,0.001637189660769,-0.0027105819424732,-0.0181290880980585,-2.998784721278376e-06,-3.457679069406776e-06,4.311784185006383e-06,11775,1.888041,10.269644,7.728161
0.4795190080068193,0.5101692113911819,0.2767828309240668,0.0016078678979738,-0.0029639144402073,-0.019984787650851,-1.172454744981722e-06,-3.1654911126683187e-06,3.858318837400579e-06,11776,1.700222,11.664269,6.697213
0.6802747027143778,0.6289477765862723,0.3590917095618652,0.0016138615626065,-0.0029133065627059,-0.0219140274253906,7.935713522999904e-07,-2.3990437032246827e-06,3.370319606790864e-06,11777,1.499943,13.15553,5.406778
1.158513457806153,0.748512909214078,0.6110539129652781,0.0016168161125778,-0.0025220667380899,-0.0238110907569399,2.9149675565513207e-06,-1.247711311300715e-06,2.968142575721798e-06,11778,1.349772,14.865012,4.501231
1.5208537561219,0.8306899410772308,1.0555137674345672,0.0015931137370823,-0.0018216975045198,-0.0256209591333424,5.273918578403939e-06,3.516060204493489e-07,2.5580395638870887e-06,11779,1.609341,16.880381,3.649167
1.4987495815802925,0.933043560676808,1.2693924652754949,0.0015222723667641,-0.0008826931240677,-0.0272599719110078,8.111037955586401e-06,2.735223347692239e-06,1.7931594765610505e-06,11780,1.763195,19.295013,2.955546
1.2442879514009118,0.956075599683208,1.1761434508692807,0.0013985039831392,0.0001488526159672,-0.0286422615133704,1.1545091291771643e-05,6.034942799743348e-06,5.891699280083716e-07,11781,2.484397,22.250943,2.298384
1.1486193935110944,0.8169285611733601,1.078902087109836,0.0011964969687056,0.0011122821816996,-0.0295602492283629,1.503868825306659e-05,1.0032029693808632e-05,-5.757556922443794e-07,11782,2.332176,25.868649,2.386599
1.2051040788267424,0.7667475340585967,0.9012789082190392,0.0008700273496881,0.0018161628464425,-0.0296517425890291,1.7785288962569537e-05,1.444495697334505e-05,-1.2011833451358934e-06,11783,3.049492,30.071097,1.859993
0.4212653981446289,0.7279271583425494,0.5272100094508723,0.0003749941338244,0.0019539932871406,-0.0284454913884608,1.9666119861632055e-05,1.903951242589153e-05,-1.383878956624978e-06,11784,2.399912,34.448377,0.770589
-1.5148155320490888,0.3292682796997476,0.2725476003132492,-0.0003403101018979,0.0010866409473562,-0.025286015761585,2.1339971652021832e-05,2.3571762053631737e-05,-1.717050835791001e-06,11785,5.845043,38.15808,4.475531
-3.1595595336455222,-0.5480327840002759,0.2677849855234632,-0.0012971302806689,-0.0007994117982914,-0.0199285035773246,2.3577695055953783e-05,2.78249079158351e-05,-2.9126147851270037e-06,11786,8.405444,41.159521,7.190369
-3.666194311070024,-2.143828901668419,0.2692762957652588,-0.0024791393168367,-0.0032422706653258,-0.0125887123336388,2.6776154338324817e-05,3.1440284666094046e-05,-5.353076375102153e-06,11787,6.707948,43.667316,5.912391
-3.767265114374528,-4.105641403471746,0.2014772460294515,-0.0038529837630513,-0.0055341431475505,-0.003633086477891,3.075833765162468e-05,3.372252201669769e-05,-8.660544561136314e-06,11788,1.608689,45.286387,0.241043
-3.929307515104569,-5.104854012169425,0.1591887989565031,-0.005350070641454,-0.0064801164675808,0.0061921722529661,3.451943704044466e-05,3.391120421222278e-05,-1.1788478995232744e-05,11789,-4.165496,44.528837,-7.849251
-4.005167802779823,-4.738885884931376,0.1361930832338534,-0.0069049138428286,-0.005707662182995,0.0163632090703742,3.64028782790476e-05,3.148269884659838e-05,-1.348685769079932e-05,11790,-7.743559,41.780813,-12.442434
-3.9253487433672873,-4.156552195298813,0.1298060946633172,-0.0084505547770646,-0.003754309651914,0.0265756705690574,3.5162473418453826e-05,2.6271283271576524e-05,-1.2911940743902697e-05,11791,-7.550213,38.505649,-11.491161
-3.560120906623921,-3.995977238228876,0.1886160731423893,-0.0098751629490959,-0.0012883075229827,0.0362112135581464,3.083825942705612e-05,1.869457865878418e-05,-1.0232177460636096e-05,11792,-5.93535,34.946154,-7.516982
-2.9392734483171346,-3.5529146278890344,0.357198839307264,-0.0110202045515286,0.0004457237416621,0.0444332736209502,2.457472386116993e-05,9.943447932802135e-06,-6.652234467706647e-06,11793,-4.822345,30.260945,-3.343669
-2.3494480894966734,-2.383725383969672,0.6180655374730045,-0.0117948800523156,0.0009731735924722,0.0507411712648603,1.7790797003526646e-05,1.605305387954133e-06,-3.6447677315726622e-06,11794,-4.262154,24.531857,0.351064
-1.8606178136955167,-0.9522104298698172,0.7314707313018725,-0.0121755754291039,0.0007054502388681,0.0549366291831887,1.1289491850608344e-05,-5.306512994138093e-06,-1.9274173777752878e-06,11795,-5.004204,18.220428,1.990424
-1.2629886888616966,0.0417079951552337,0.5685409481852306,-0.0121484794478027,-4.464475391055154e-05,0.0569241692249993,4.9766219666461694e-06,-1.0649474527232686e-05,-1.2373751610269185e-06,11796,-6.604547,11.754952,1.743365
-0.4123300485640477,0.3034162382617211,0.4520938282157868,-0.0117444121995489,-0.0006484958084877,0.0568788114442741,-1.5916361961214422e-06,-1.449441531825493e-05,-1.075715987141937e-06,11797,-8.108939,4.976613,1.036851
0.3307396161046323,0.3061638300945977,0.5641354824886177,-0.0109571366010172,-0.0008413740639284,0.0548143310369573,-8.49867652171826e-06,-1.684462202918274e-05,-1.1918220171643e-06,11798,-9.352796,-1.717866,2.651752
0.620199051362732,0.6665396140524058,0.6458366218000484,-0.0097396066961703,-0.0008343291695869,0.0505897777530777,-1.5257614549869294e-05,-1.7869454646189878e-05,-1.4409802135718804e-06,11799,-10.993442,-8.1933,5.292276
0.9791244827301384,1.3862874596574222,0.603289362691309,-0.0080740379528887,-0.0006648603207538,0.044285302796891,-2.109411363005232e-05,-1.7992664728101904e-05,-1.6965166513240978e-06,11800,-12.380206,-14.568835,6.314804
1.7124804859379523,1.9410550114653744,0.5822466817306268,-0.00595390906644,-0.0004014104081204,0.036135276141861,-2.516986568565662e-05,-1.761758048984138e-05,-1.838941584994602e-06,11801,-13.676717,-19.415419,7.289992
2.1060720109073627,2.025940433482345,0.5645583200678284,-0.003447684430768,-8.144634651898147e-05,0.026664079795936,-2.679033786893227e-05,-1.6875289244481397e-05,-1.6732725245203184e-06,11802,-13.752924,-21.417325,5.83374
1.8916222285120683,1.919708582542772,0.4467804376823774,-0.0007238841713284,0.0003592309322269,0.0168170957428426,-2.5991485495713773e-05,-1.5973341941089905e-05,-1.018577021163206e-06,11803,-13.022547,-20.88236,5.538361
1.651939445933798,1.830372515677758,0.1405479016161439,0.0019707313012422,0.0009001653923967,0.0074890756311102,-2.380029758582572e-05,-1.5269768618898955e-05,2.0776872508582752e-08,11804,-12.310432,-18.487488,6.522656
1.5745859689028976,1.692850891087806,-0.4093903750006115,0.0042627457103282,0.001466885104451,-0.0003717640396029,-2.1574565204527184e-05,-1.4785416380546146e-05,1.0090894053214213e-06,11805,-9.513539,-16.162012,5.186976
1.2940941469420535,1.5544432450905192,-1.0271601351014026,0.005984946940887,0.0019903797187088,-0.0062709030721453,-2.015385903051488e-05,-1.437737454591931e-05,1.5861136929664454e-06,11806,-7.200266,-15.3668,1.777048
0.665126792412573,1.4809441628602165,-1.4331130361909927,0.0071941888310803,0.002375044180284,-0.0103270205266958,-1.9589266459136363e-05,-1.4067795832970458e-05,1.7957035781020476e-06,11807,-7.836442,-12.308812,5.214336
0.2345018835381891,1.442132652122126,-1.5559750732577102,0.0079790011197094,0.0024819507879562,-0.012831242109121,-1.940577424972207e-05,-1.3799787176091998e-05,1.9078600195989983e-06,11808,-8.136966,-9.503041,9.821239
0.5138598470404602,1.395966033493214,-1.4727382566626208,0.0085706147520329,0.0021201634310037,-0.0145171631370994,-1.891965356140409e-05,-1.3324882495221098e-05,2.1714433386005865e-06,11809,-7.91708,-7.258614,12.169814
0.8471165088292164,1.333758401980124,-1.3003060142366485,0.0090320569624082,0.0012810837839999,-0.0157129397929313,-1.753644811773832e-05,-1.2383044323066718e-05,2.7584868636491125e-06,11810,-5.763706,-5.320713,11.641758
0.6150789694409822,1.2533142411143945,-1.1947377260345355,0.0092343282748107,0.0001634788406777,-0.0162992217002883,-1.523115702825405e-05,-1.0937242194331338e-05,3.656961270382501e-06,11811,-3.706573,-3.63617,8.783557
0.4717341066100998,1.11181753712495,-1.1509774952847789,0.0090947702576199,-0.0009248706941972,-0.0163779867415626,-1.2648179510921723e-05,-9.209270121592862e-06,4.584527627217368e-06,11812,-2.204445,-2.180342,6.954029
0.7980197848501693,0.9726608470127676,-0.9904504768957346,0.0084884077811595,-0.0014624082724845,-0.0160625524758788,-1.0513276935247886e-05,-7.491804013113877e-06,5.199038714379102e-06,11813,-1.179188,-0.92911,6.026346
1.033586754587146,0.9512049336739032,-0.7022697136995897,0.0074121060329081,-0.001291483201918,-0.0154801359670263,-9.16363389346452e-06,-6.03589780421248e-06,5.41886511536447e-06,11814,-0.365948,0.129594,5.248308
1.022065888751665,0.951256738260342,-0.4978616226262297,0.0060257441612021,-0.0006572201760617,-0.0148457646327409,-8.534138881298273e-06,-4.927407607618065e-06,5.431821714851067e-06,11815,0.224099,0.911278,6.655686
1.0983181359208212,0.8372569271298971,-0.4650556757376161,0.0045236259936048,0.0001349450181278,-0.0143184251198403,-8.279922694913367e-06,-4.115854502072856e-06,5.439400480655782e-06,11816,0.788697,1.754254,7.197938
1.1888686622818767,0.6839172527925708,-0.4670922143236499,0.0032085855011587,0.0005219210780797,-0.0140222488502135,-7.979904905927103e-06,-3.609111392822393e-06,5.466208295025452e-06,11817,0.871215,2.706725,6.546435
1.1410183570410912,0.5964570065186219,-0.4308580133170535,0.0022243623139604,0.0002932033265013,-0.0140635134235268,-7.395302980514802e-06,-3.3587953136223504e-06,5.416061076809387e-06,11818,1.214129,3.583774,7.034138
1.0799327093704645,0.5639302558521598,-0.3902712704284234,0.0015318150539923,-0.0003561894789214,-0.0145011519522527,-6.575053058783027e-06,-3.170372162745663e-06,5.255423911919715e-06,11819,1.473517,4.54013,7.265989
0.9997904192241952,0.555230190712302,-0.315244296646017,0.0010940402787592,-0.0012666209771869,-0.0153447474083477,-5.61973863746214e-06,-2.9604074442519757e-06,5.018041728077596e-06,11820,1.284886,5.690007,6.599107
0.9127203936826228,0.5364801434170987,-0.1707439796531948,0.0007892570857578,-0.0021236149230932,-0.0165333282919926,-4.420573965610031e-06,-2.775417237899105e-06,4.70715105105356e-06,11821,1.060034,6.940598,6.077944
0.8949530718328232,0.5002082038771656,-0.0441894859343752,0.0005592289436801,-0.0027638826663553,-0.0180371822554568,-2.856005874575751e-06,-2.5591905837773868e-06,4.321607041692185e-06,11822,1.036474,8.312386,5.594967
0.8855462822052624,0.5269023446544376,-0.0338990693349398,0.000423703662842,-0.0032201949877967,-0.0198492892360253,-1.0414724121982048e-06,-2.1963152920136025e-06,3.902346017066485e-06,11823,1.022091,9.804385,5.017353
0.9680320687906578,0.6840365895438405,0.0520789584278385,0.000331617416451,-0.0034190608933086,-0.0219003077254553,8.738149749704227e-07,-1.5643676655913668e-06,3.4989727398417565e-06,11824,1.028086,11.428829,4.421516
1.2595722993229792,0.8736497627752445,0.4751488325521164,0.0001932748416519,-0.0032635529145219,-0.0240690458101031,2.8977081237205173e-06,-4.590165965499511e-07,3.124853543088742e-06,11825,1.121031,13.206179,3.644035
1.488095688123661,0.919519703185906,0.9931145437886164,-2.9759030430124645e-05,-0.0027244339538131,-0.026226660406825,5.146336252942582e-06,1.2633143876518925e-06,2.7035851285625985e-06,11826,1.107769,15.237169,3.083598
1.4444162309884705,0.8690290382975907,1.1664183458664066,-0.000338455169813,-0.0018160634880212,-0.0282155699596882,7.906046553098384e-06,3.673506056325137e-06,1.9892726178786898e-06,11827,1.34038,17.61491,2.772991
1.2988471188020376,0.7960315255037061,1.0449658162816524,-0.0007174959885891,-0.0006220508681744,-0.0298143341136293,1.13950232047178e-05,6.974987482841705e-06,7.770545539186127e-07,11828,1.524987,20.502851,2.169006
1.097985720871744,0.6582306487640187,0.9581914612259014,-0.0011121205742422,0.0006735133520858,-0.0307254494823983,1.5174250995300752e-05,1.1339215094454712e-05,-6.565703192967935e-07,11829,2.130107,24.128712,1.095387
1.0735900900567454,0.6302236614121719,0.928387913816991,-0.0015139444950167,0.0018756206344401,-0.0306571811102687,1.828026419399649e-05,1.647919302127873e-05,-1.661425819556297e-06,11830,1.457565,28.677637,0.770298
1.1067881535731718,0.5750602811984329,0.7725868357972501,-0.0019635615370544,0.0027510887661223,-0.0293057302685379,2.0092135503412693e-05,2.1691258353227923e-05,-1.868862346812916e-06,11831,0.248737,33.575535,-1.672001
-0.1650279175178454,-0.0005383727951026,0.4960662643911218,-0.0024920972978228,0.0029292575375481,-0.0262797825113838,2.0878479674263965e-05,2.646733376878736e-05,-1.5708945673987915e-06,11832,3.984724,37.8189,3.605267
-2.743235399965616,-1.1462312003485005,0.2463503460232106,-0.003144485314135,0.0018819381238604,-0.0210949874067285,2.1539865043597244e-05,3.0592915486781674e-05,-1.4739738305621198e-06,11833,8.64285,41.075016,9.078123
-4.257591910561497,-2.7807442078286586,0.0982890704414548,-0.0039334756800039,-0.0004017153006969,-0.0136603102912705,2.3002475254367247e-05,3.358786576860577e-05,-2.2650106644675766e-06,11834,9.418211,43.484882,10.948548
-3.903756744165488,-4.540902049214057,-0.0013404980775946,-0.004829824194531,-0.0033533721509486,-0.0043310131383499,2.583725427350509e-05,3.4871727229019834e-05,-4.3715348697946445e-06,11835,6.417183,45.075111,8.008038
-3.4369691549760324,-5.4143744246667005,-0.0769401350266309,-0.0057978207078829,-0.0061015337963505,0.0062716669942971,2.973292795472694e-05,3.42665744148158e-05,-7.530775004001173e-06,11836,0.165083,44.704963,-0.42823
-3.6285606526531087,-5.058747409664244,-0.0672085425884731,-0.006776108145786,-0.0071776881305317,0.017033523320262,3.3101323173984664e-05,3.169629210190687e-05,-1.0495619921620646e-05,11837,-5.160393,41.871911,-6.847718
-3.640501949930667,-4.468460727746511,-0.0083537329855706,-0.0077216294403492,-0.0061423521453703,0.027261688472085,3.3953981576730045e-05,2.6930893329977484e-05,-1.1802078825148369e-05,11838,-7.668646,37.743324,-9.560441
-3.220967669891021,-4.316231032367519,0.0263259069838978,-0.0086118591319386,-0.0036962710737007,0.0366846365543415,3.133478627440868e-05,2.0001867743435023e-05,-1.0850528715012892e-05,11839,-8.00427,33.506275,-8.911306
-2.6977322793303458,-3.835334162431933,0.0748047432647604,-0.0094046719559206,-0.0007211530567024,0.0447763316803058,2.5760582954092954e-05,1.156076769462023e-05,-8.142917251330723e-06,11840,-7.300989,28.531171,-6.024541
-2.201620350993589,-2.295504048929539,0.1883581576303833,-0.0100473017426491,0.0011614197172166,0.050956745162021,1.851499538162116e-05,2.6937745451383525e-06,-4.807528819922795e-06,11841,-6.298407,22.481598,-2.182929
-1.764912513935244,-0.3944085410176472,0.3149031293396714,-0.0104631448422725,0.0013386495145495,0.0548098252180631,1.0638539365767353e-05,-5.483458037267352e-06,-1.967493931145543e-06,11842,-6.344854,15.920116,0.992853
-1.2338571366533189,0.6053431109344647,0.386151120044458,-0.0105404634218445,0.0003552831381608,0.05603573571642,2.5461468469668944e-06,-1.1978108206138566e-05,-3.6514884931670294e-07,11843,-7.337231,9.241719,2.566154
-0.3975728860407488,0.6737842189178567,0.4069136884324108,-0.010135834012821,-0.001346210162076,0.0545023437001562,-5.587794251478301e-06,-1.6085664733949484e-05,-1.903556445754825e-07,11844,-8.764059,2.376793,3.075506
0.5764806557355637,0.8713403037689982,0.3798167799128672,-0.0090576188129516,-0.0028821017539,0.0503259998856457,-1.329073475287914e-05,-1.7825211574364575e-05,-9.96591631145888e-07,11845,-10.540798,-4.486328,4.034419
1.0847521609590165,1.4456418427660758,0.3804779554418715,-0.0072759549957682,-0.0038118235068896,0.0437205035229522,-1.9751050019112974e-05,-1.796239770510366e-05,-2.018142462015634e-06,11846,-12.22275,-11.490069,5.4765
0.9954205810038091,1.8654365049092323,0.4185387742052435,-0.0049460462823151,-0.0042685882543415,0.0350779348503784,-2.425784164407319e-05,-1.7321538843482233e-05,-2.660478658509464e-06,11847,-14.229631,-16.95115,7.735396
0.9453107864956368,1.9612439222928728,0.228546083308558,-0.002315457593992,-0.0040940488745161,0.0252013496954273,-2.6409546987387348e-05,-1.636895441985945e-05,-2.5996841257593957e-06,11848,-14.717735,-20.132332,6.7819
1.0676734976248436,1.829534587187888,-0.2665954028231772,0.0001830503411704,-0.0030817757945288,0.0153975650866803,-2.615282620156125e-05,-1.54491612312836e-05,-1.7653354068169114e-06,11849,-12.552699,-20.868642,2.773116
1.0708041298152018,1.6987605508896708,-0.7433989461002415,0.0022915517923431,-0.0012951611022479,0.0065007111799994,-2.4245356594090803e-05,-1.482119157777922e-05,-5.109936771471286e-07,11850,-11.559191,-19.081652,3.019626
1.2593819029658282,1.6819288004307182,-0.8635616400165167,0.0039330232466103,0.0009821372333595,-0.0010941431049551,-2.234479531903609e-05,-1.4428356291446136e-05,5.116668765291883e-07,11851,-9.593378,-16.194676,4.100226
1.8507208155172648,1.447348661285296,-0.5857661815422914,0.0051049280330182,0.0031711410913009,-0.0070778740393782,-2.1702258362977845e-05,-1.3982152160689187e-05,9.290778387285236e-07,11852,-8.027298,-14.608297,3.553382
2.2664930702408053,0.9603325389615628,-0.2981700570128397,0.0059970636022115,0.0042597568796603,-0.0115027423239563,-2.1829324576275532e-05,-1.3338307868402951e-05,9.145333839938168e-07,11853,-8.11558,-11.3134,5.74695
1.8948202077323788,0.8229903546601578,-0.4510244278837324,0.0066912441496396,0.003934620712711,-0.0144361009829866,-2.1304848320075696e-05,-1.267307893781506e-05,8.00105256675502e-07,11854,-8.848429,-7.927708,11.835206
0.962939583247411,1.1800006812334818,-0.9475850519707484,0.0071777264814437,0.0026205780405939,-0.0160199198252553,-1.9613753207909543e-05,-1.2125629950361476e-05,7.813298888608496e-07,11855,-8.520154,-5.680198,14.982062
0.2229800956646719,1.379736305360733,-1.2783969502379735,0.0074927156724058,0.0008596319470873,-0.0165776883031888,-1.7220685772925725e-05,-1.1577644743935749e-05,1.065402603542432e-06,11856,-5.51229,-3.669317,13.00994
0.0534498754544834,1.1553629331828943,-1.2997942830447615,0.007656736239565,-0.0003202797874193,-0.0166018228034585,-1.4525239175720335e-05,-1.0953263783457606e-05,1.7967094225979027e-06,11857,-4.964721,-2.1887,5.436568
0.254869672081869,0.932055896699847,-1.2261117587318997,0.0076960468943926,-0.000533260577949,-0.0164040865157982,-1.1879690884254572e-05,-1.0283892920016531e-05,2.7040977448306856e-06,11858,-4.267856,-0.583847,6.349682
0.459420295689828,0.8808223282754462,-1.042573986458876,0.0076493010403738,-0.0001271574279457,-0.0161085368590257,-9.961512905584703e-06,-9.556237421618232e-06,3.314402036276793e-06,11859,-3.284816,0.753772,8.614713
0.5420780671708143,0.8364061747480591,-0.7030177617729281,0.0075089523944102,0.0006356495382167,-0.0158219818112008,-9.153910666458157e-06,-8.766940579948445e-06,3.620214918608241e-06,11860,-2.506832,1.777733,8.808055
0.5699103093884199,0.7705133273900941,-0.4026159726281388,0.0072188065756033,0.00123455209596,-0.0155250951651046,-8.917511919597215e-06,-7.946099094783912e-06,4.023666268147447e-06,11861,-1.777554,2.843181,9.045045
0.5910782112558646,0.7031469170201534,-0.3005404316278643,0.0067820045734895,0.0014518249810008,-0.015287254793186,-8.448474050468931e-06,-7.116736560947517e-06,4.630909471262921e-06,11862,-1.148026,3.728421,8.441137
0.6071885158674435,0.6435656323741596,-0.3085600118787738,0.0062547150791534,0.0014666651423017,-0.0152702126813833,-7.632100591582955e-06,-6.3034009038829625e-06,5.171851769365665e-06,11863,-0.631087,4.516212,7.870335
0.5403494200355552,0.6074340172889091,-0.2919942380419065,0.0056887064671747,0.0013201256561546,-0.0155216770671081,-6.798374148989326e-06,-5.57889476077216e-06,5.525841649751238e-06,11864,0.312202,5.249704,8.7154
0.4412506789906323,0.565458519745027,-0.2617865472466302,0.0051580721644486,0.0010858886902235,-0.0160106629646192,-6.029583167878512e-06,-5.056605050409559e-06,5.841903897368754e-06,11865,0.501571,6.152536,8.06907
0.5173264951642436,0.5092448120375619,-0.196420065748224,0.0047029446826989,0.0008015418665229,-0.0167706634219419,-5.163942423792079e-06,-4.706039391697165e-06,6.177273007000591e-06,11866,0.900381,7.192388,7.701767
0.7042122332091822,0.4477732879256246,-0.1102313054367291,0.0043212389185897,0.0004096454825796,-0.0178728551231591,-4.081976751834532e-06,-4.298415946063354e-06,6.3568053574697015e-06,11867,1.367476,8.401056,7.776733
0.7686513698629268,0.4413210009483395,-0.06478301632887,0.0040126942194348,-7.842165915353662e-05,-0.0193678512285006,-2.7603732472236344e-06,-3.679330618837063e-06,6.2771330827593845e-06,11868,1.664154,9.791616,7.720977
0.8709535569987253,0.5884827763818867,0.1215560188855765,0.0037595148413076,-0.0006133182459155,-0.021309312417467,-1.185209649158749e-06,-2.950241539728093e-06,6.060760483311069e-06,11869,1.984073,11.29889,7.724653
1.24752782096777,0.830675607693041,0.5445046625052387,0.0035470024389346,-0.001145451734419,-0.023648974246841,7.122460191746293e-07,-2.226278287637339e-06,5.769095804365521e-06,11870,2.155263,12.915723,7.524726
1.5439702987201496,0.9777453724917184,0.8834197247385333,0.0033652249050282,-0.0015979297636858,-0.0262113060629205,3.017110334527093e-06,-1.3371713462895484e-06,5.274309908402335e-06,11871,1.99948,14.727307,6.848734
1.4646024030670048,0.9544376495505876,0.9155221126708412,0.0031794250037801,-0.0018633196429366,-0.0287338695899817,5.812882259175911e-06,-7.565566102865524e-08,4.525048324888013e-06,11872,1.836316,16.798797,6.223392
1.3019898613102066,0.8868370081566078,0.8285262433439281,0.0029307936047676,-0.0017942085209807,-0.030805213160485,9.211741378914958e-06,1.5640511543383702e-06,3.597964615988804e-06,11873,1.894344,19.213128,5.632345
1.1565668799299371,0.8152458577772034,0.7868083921322092,0.0025883589054356,-0.0013840016034975,-0.0321094962518821,1.3147448456074337e-05,3.8086969323476646e-06,2.50000506033615e-06,11874,1.896128,22.145205,4.383184
1.0728445635478157,0.6793575090901612,0.7472445520530973,0.0021463748007236,-0.0007873660421012,-0.0324191810644089,1.7123055730277196e-05,7.071904845661112e-06,1.3103044450238496e-06,11875,2.135884,25.832885,3.67797
1.1254583430197012,0.6072999972028563,0.6883843939681618,0.0015981600715669,-0.0002422852616288,-0.0314021195366634,2.0489489778335967e-05,1.120134451170315e-05,3.434174841065502e-07,11876,2.475232,30.177375,3.576077
0.4439468154221021,0.4747477172625685,0.6315767404202774,0.0009494871393465,-0.0001512330004455,-0.0286632450229905,2.299874767828096e-05,1.548840213467104e-05,-2.107355530413212e-07,11877,1.537845,34.569167,2.186716
-1.3726404637524272,-0.0940461267805512,0.6013462724012628,0.0002017703188941,-0.0006275177298723,-0.024038731491135,2.495668831726736e-05,1.9410450704483302e-05,-6.660287023426099e-07,11878,4.137332,38.417973,4.82457
-2.894292026296528,-1.2181498511962618,0.5606393704138455,-0.0006487261424651,-0.001463245177949,-0.0176100242416919,2.6946403925093977e-05,2.275894820094092e-05,-1.6394415413419222e-06,11879,6.939625,41.339407,8.32933
-3.229570352018725,-2.942186562888763,0.3551063256909708,-0.0015906088565862,-0.0023956241681133,-0.0096220776588348,2.9466381092106902e-05,2.5112501090843745e-05,-3.511868148827988e-06,11880,5.47679,43.671488,7.147769
-3.1406912374731286,-4.763515493611595,-0.0330986767692746,-0.0025988575663323,-0.0029494874828453,-0.0006130596696853,3.2581186091208895e-05,2.5878006323192792e-05,-6.170152112258302e-06,11881,1.614979,44.729091,3.024302
-3.2255945886199924,-5.577968462451329,-0.3504968958555702,-0.0036556557310752,-0.0029117757099498,0.0090266284898235,3.555634193481411e-05,2.4780715472347465e-05,-8.985562762752688e-06,11882,-3.773012,43.521948,-4.691934
-3.404381672043188,-5.189122582047151,-0.3635961509820472,-0.0047467620984648,-0.0023677367672849,0.0190300791740377,3.6952730247364674e-05,2.1682255571421455e-05,-1.0855623343415078e-05,11883,-7.843994,40.366043,-10.180167
-3.4244363390960797,-4.604576550571425,-0.1176660948851324,-0.0058494673982636,-0.0014090658932433,0.0288829059613906,3.550070181904724e-05,1.6458030540100445e-05,-1.0829915914801369e-05,11884,-8.77785,36.455967,-11.070241
-3.0405415193873324,-4.425784608152091,0.1536110001797707,-0.0069348488962903,-0.0002854622262858,0.0378788571518115,3.09068604373627e-05,9.572948953839562e-06,-8.917337964246245e-06,11885,-7.747951,32.408641,-8.56443
-2.4248747329716345,-4.010504490100979,0.3204045865406404,-0.007944376348904,0.0007195484158186,0.045506676305713,2.38607716577174e-05,2.205411170095688e-06,-6.003589852712064e-06,11886,-6.551783,27.497505,-4.646069
-1.8798949589726468,-2.6210018468964407,0.447208930180031,-0.0087814635995712,0.0012760882598204,0.051411148886361,1.5557873037066773e-05,-4.407280099355501e-06,-3.176617263875122e-06,11887,-5.66299,21.466465,-0.79616
-1.5181664350126531,-0.672802068808077,0.563012248707437,-0.009314716145354,0.0012208420340061,0.0552202269420654,7.056071442197704e-06,-9.46208149244913e-06,-1.2614732732856725e-06,11888,-5.985886,14.763181,1.853824
-1.3429027143769434,0.6101735011912237,0.5950674010508463,-0.0093590925073849,0.0006103844259061,0.0566339853910725,-1.1978237649397532e-06,-1.2481494382215172e-05,-6.334094882533e-07,11889,-7.08155,7.854677,2.884754
-0.7175230844882261,0.7828496368379176,0.5414891936638649,-0.0088288585446834,-0.0005032017220121,0.0554610815301685,-9.052669161664094e-06,-1.3257220853558256e-05,-1.0935622442668813e-06,11890,-8.558071,0.850087,3.414119
0.7333869065113061,0.6437789759309857,0.4686573921939981,-0.0077469159194734,-0.0019813050663177,0.0516404144221605,-1.59822908816776e-05,-1.2129492578427517e-05,-2.000949341813143e-06,11891,-10.108229,-6.141209,4.017776
1.891183503336676,0.8118969892407661,0.4453311835935153,-0.0061617815551724,-0.0033605003326167,0.0453307857719029,-2.1228100568156376e-05,-9.930541488669333e-06,-2.831675510675249e-06,11892,-11.544774,-12.939714,5.393818
2.04002890778088,1.1729666732628572,0.517660184739638,-0.0042017405070061,-0.0037955398700368,0.0369843627714285,-2.443612879737128e-05,-7.5468069395984256e-06,-3.3958082793725656e-06,11893,-12.858334,-18.070048,6.702329
2.025667244596684,1.4305246316642783,0.6233737356499522,-0.0019907724094378,-0.0030307114401016,0.027230727623647,-2.569407622406106e-05,-5.53928073400174e-06,-3.4515895643480704e-06,11894,-12.650864,-20.752535,3.942886
2.305220387667375,1.4134640833512806,0.6563136018547123,0.0003440329965875,-0.0014099162114324,0.0169848506995836,-2.5294210202996918e-05,-4.1173059885197865e-06,-2.76577431959698e-06,11895,-10.650834,-20.802192,1.540885
2.423385936879251,1.2941241523030689,0.5703872064410342,0.0025668972390233,0.0006421674727145,0.0072204509404567,-2.388324924839185e-05,-3.3748447103376257e-06,-1.6212010438031917e-06,11896,-10.142633,-18.756423,2.588009
2.1312830581011117,1.2489077108394753,0.2877091876668837,0.0043279936870934,0.0023182957241586,-0.0009823015568684,-2.2493037279786926e-05,-3.236475076145108e-06,-6.712199286436376e-07,11897,-9.749579,-15.554482,5.670248
1.549667531297707,1.1750008330820365,-0.2153007950218246,0.0054658215916924,0.0032658379780732,-0.0070545695147247,-2.186548788340341e-05,-3.333579663799825e-06,-2.480959306896282e-07,11898,-5.889852,-15.280771,2.561547
1.012497891009245,1.0611397930395483,-0.7069710438887262,0.0060103285929258,0.0036517664052328,-0.0110722421023301,-2.175869710803404e-05,-3.303487904038656e-06,-1.6473972876080602e-07,11899,-7.365302,-12.098875,6.970592
0.7994447959303695,1.0056765187783516,-0.9401022798961534,0.0060368878769145,0.0035256754424137,-0.0132762748357663,-2.139335632469285e-05,-3.1906483299097272e-06,-1.498820953953269e-07,11900,-7.354308,-9.47464,9.537029
0.7639203239476657,1.036874843781016,-0.942323386815728,0.0057650347119917,0.0030603937152364,-0.0143611961672233,-2.038750014954489e-05,-3.3278926980056674e-06,-6.948063857940939e-08,11901,-7.15774,-7.291609,12.568854
0.5794115208648696,1.1169892456044237,-0.8679832838978832,0.0053090108501224,0.0023706688297339,-0.0146944315309279,-1.878580018456726e-05,-3.748006330915785e-06,2.3461486442632002e-07,11902,-5.528195,-5.398418,12.155026
0.2779861525370527,1.1353211208513454,-0.8002653994030294,0.0046723180957148,0.0014597016478146,-0.0142883079092659,-1.6729633336523995e-05,-4.139167364596288e-06,8.44159440416623e-07,11903,-4.077588,-3.685845,9.520764
0.211759485506105,1.054030086266505,-0.7513622498059824,0.0039615840719399,0.0005079231515841,-0.0134672476091064,-1.4513588189031198e-05,-4.334559758327313e-06,1.5421482111014903e-06,11904,-3.684616,-2.291659,8.43553
0.4441917273277385,0.962204583544003,-0.7196243907586306,0.0033375816087482,-0.0001612223539487,-0.0127053383025155,-1.2562806389336198e-05,-4.344317871846264e-06,1.9826389995135984e-06,11905,-3.079919,-1.004414,8.156641
0.6741761163105935,0.9181601883820524,-0.6842553585233432,0.0028782329437291,-0.0004223494512152,-0.0122444320128057,-1.1179469712998546e-05,-4.1930745284307125e-06,2.0624978514027045e-06,11906,-2.647737,0.035717,7.668473
0.778979843108066,0.8862916106475953,-0.5964560164079495,0.0025957946655559,-0.0003258421675329,-0.0121469797108788,-1.0323971739548964e-05,-4.002857857658014e-06,2.053253422172392e-06,11907,-2.357575,0.878256,8.006537
0.8475681428516133,0.834815101748859,-0.5000340750458847,0.0024684539146407,4.042476720767679e-05,-0.0123621607521738,-9.674969134546611e-06,-3.97397064853499e-06,2.2831072672857165e-06,11908,-1.925321,1.693715,8.177358
0.8390027640883491,0.7900342633392307,-0.5089845333934149,0.0024009135197067,0.0004553763088863,-0.0126138178800254,-8.947332982647763e-06,-4.212476482458913e-06,2.765306066710886e-06,11909,-1.793354,2.55826,7.016151
0.7270018796139956,0.7548360389685393,-0.5601774918556843,0.0023558926660454,0.0008152172725469,-0.012841586845741,-8.051683144776997e-06,-4.6396979938358805e-06,3.2827623447224165e-06,11910,-1.331811,3.420259,7.066017
0.6228369242385767,0.7093344566958482,-0.4943298785123144,0.0023526378975762,0.0011422188508724,-0.0132002222760146,-7.029558146218775e-06,-5.0179370205607145e-06,3.663494813736905e-06,11911,-0.981745,4.46892,6.759328
0.6080845977944547,0.673506885641936,-0.3487336351891913,0.0023664977823239,0.0013823787602339,-0.0137477669470747,-5.941569545799221e-06,-5.08999356768472e-06,3.878896416763043e-06,11912,-0.698845,5.664427,6.173115
0.7383491481363669,0.6673862253345761,-0.2215240822549369,0.0023550792352205,0.0014624222478542,-0.0145473964482141,-4.759067679280619e-06,-4.83710538271383e-06,3.987556501109071e-06,11913,-0.340144,6.998081,5.895637
0.9338972660918166,0.6636133564075058,-0.110954511779192,0.0023005283922053,0.0013538687590592,-0.0156382396219161,-3.4378117010603345e-06,-4.534708085254388e-06,4.037675776304323e-06,11914,0.110695,8.430833,5.814221
0.9869665740566468,0.6924277181053287,-0.0602254231292929,0.0022002271099997,0.0010565745094628,-0.0169987728948149,-2.069568447307214e-06,-4.408766252566754e-06,4.072734987471387e-06,11915,0.428946,9.942837,5.58447
0.8810297060994607,0.844369118464986,-0.0432713514422304,0.0020634681857321,0.0006113540979366,-0.0186258060546498,-7.427427300952166e-07,-4.34760127069711e-06,4.151081188294136e-06,11916,0.692905,11.533379,5.138122
0.7752118555634913,1.022389467101538,0.1125798699475436,0.0019221579869723,0.0001205140630189,-0.020513858398454,6.547880087895762e-07,-4.1129786130416805e-06,4.280045104643566e-06,11917,1.100828,13.233754,4.660183
0.6984513489100828,1.0542284344502504,0.3791070100069699,0.001778017432885,-0.0003294675640352,-0.0225820325679029,2.3304222390128068e-06,-3.658596242557585e-06,4.37197795191472e-06,11918,1.054046,15.195269,4.147065
0.6053475865419843,1.0309815690371684,0.5106661801171526,0.0016013593345886,-0.0006560007096776,-0.0246677882204635,4.501023392686895e-06,-2.9534404303142872e-06,4.213602943231841e-06,11919,1.52312,17.42088,3.894803
0.5374414955286693,1.0973179615209636,0.4608434427848983,0.0013635973977448,-0.0007132140229513,-0.0265252814291772,7.36868335945675e-06,-1.7680440121394295e-06,3.593826091424253e-06,11920,1.627879,20.029703,3.634382
0.4381955007843405,1.1123030780900525,0.4166102439691798,0.001021975189308,-0.0002932479600967,-0.0277820359087556,1.0797974348066764e-05,7.716757471945169e-08,2.610963049638231e-06,11921,1.968211,23.144779,2.693173
0.3822424637248852,0.9672721688248918,0.4196293631688118,0.0005549765956685,0.0005795480430867,-0.0281551082549726,1.410558741193314e-05,2.5607683162206614e-06,1.66504906765004e-06,11922,1.50036,26.922069,1.888284
0.4621926140529131,0.8545453558405608,0.3162213612467969,-3.292434744979803e-05,0.0016213915888796,-0.0274423698395894,1.6471811396438664e-05,5.593458485903716e-06,1.0967638878761808e-06,11923,0.983419,31.236384,0.703552
-0.0742787588017814,0.8110017224424788,0.0998099734223489,-0.0007387967155402,0.0023986934423793,-0.025364874369314,1.7638150425928315e-05,9.004589591839964e-06,9.589893120378702e-07,11924,2.212092,35.423454,2.58825
-1.733723185056113,0.5205737558947618,-0.0327838798134534,-0.0015493332512518,0.0021956081773903,-0.0216062631575511,1.822450857781493e-05,1.2476629487615573e-05,9.466417461222124e-07,11925,5.666092,39.185925,6.664826
-3.258345046933565,-0.5723944848426796,-0.0144693182819451,-0.0024536611476741,0.0008542580789922,-0.0160727737844461,1.9319698548595707e-05,1.56774005444441e-05,4.309798546132458e-07,11926,9.371288,42.062598,11.498169
-3.547310985276658,-2.738436557859858,-0.0075549322910191,-0.0034446171795815,-0.0011604096223844,-0.0089145885752726,2.1701692417314963e-05,1.834933024593609e-05,-1.1441147486625952e-06,11927,8.095629,44.507311,10.515644
-3.426360281993424,-4.920864614805572,-0.0993681242601709,-0.0045008049131581,-0.0032271400001097,-0.0004656329196468,2.526740276640417e-05,2.0125572968876932e-05,-3.7171105101244704e-06,11928,3.248346,45.903309,5.398269
-3.672869346220834,-5.679139319141024,-0.1984128548837015,-0.0055874644875933,-0.0042611767396784,0.0086282806083704,2.8910356549901765e-05,2.0474095172219177e-05,-6.476520158398299e-06,11929,-3.302688,45.035453,-3.496228
-3.800438754954655,-5.190310818172673,-0.2166229645069155,-0.0066773721979793,-0.0039076383449674,0.0179340014584991,3.0983553513953576e-05,1.9045220243647164e-05,-8.302685585430779e-06,11930,-7.850524,42.031928,-9.209373
-3.5726873414444604,-4.661344397810453,-0.1665631155640632,-0.0077476161038134,-0.0026405720215149,0.0272140297275491,3.020741870377268e-05,1.585469019576229e-05,-8.480506842635024e-06,11931,-8.741875,38.348234,-9.946652
-3.276423315528083,-4.478190058073305,-0.1133932756925019,-0.0087673656243003,-0.0009794180316534,0.0360241956414134,2.645090263700772e-05,1.1188366473549056e-05,-7.12406463852509e-06,11932,-7.825228,34.406645,-7.623673
-2.82332476395878,-3.997006748073392,0.0053128227106218,-0.0097004606233656,0.0001136396588288,0.0438063088250554,2.0784276445717225e-05,5.681652848732045e-06,-5.026687932980859e-06,11933,-6.880871,29.496051,-3.825728
-2.1043916977413075,-2.65484081716538,0.2396145804393485,-0.010483878854536,0.0002783010445369,0.0501075092832644,1.4640114730983718e-05,2.7515802436651334e-07,-3.1235568361644656e-06,11934,-6.376482,23.509107,-0.74804
-1.5083126181512805,-0.8320128566729801,0.4048304922326067,-0.0110200111886039,-0.0001323622623609,0.0545364102684694,8.818190800077295e-06,-4.172455428023802e-06,-1.9616773840704934e-06,11935,-7.039279,16.902,0.946063
-1.1843365845339884,0.3867824406703856,0.3713658554268862,-0.0111802526468846,-0.0008521189095515,0.0567033820961272,3.2867702199768133e-06,-7.172909540989156e-06,-1.584559249026441e-06,11936,-8.206332,10.142598,1.804276
-0.5204172276617515,0.5523162924581291,0.1689201692580966,-0.0107879360240999,-0.001372434516858,0.0562638410698879,-2.2355015306077697e-06,-8.600187721576614e-06,-1.772129498891435e-06,11937,-9.748185,3.158268,1.47891
0.6984926707401446,0.4382678991453785,-0.0556958709441705,-0.0097734608946334,-0.0014497076921406,0.05307261944593,-7.711716208790523e-06,-8.594426766682917e-06,-2.2295414008710733e-06,11938,-11.168283,-3.932274,2.103133
1.6733831629215117,0.7642045000195025,-0.028901075338747,-0.0081864038664101,-0.0011935916291405,0.0472300848985649,-1.277739207319035e-05,-7.625020461497779e-06,-2.6754957766700767e-06,11939,-12.476893,-10.839639,3.81274
1.935424289168684,1.281909532010096,0.236311741210513,-0.0061165248046961,-0.0005619363893246,0.0390950750034482,-1.6870560814674867e-05,-6.393592551772837e-06,-2.9274657918670797e-06,11940,-13.265952,-16.696141,5.641205
1.9490918641225043,1.5073407072062217,0.4601825677769608,-0.0037532944051134,0.0004895154669183,0.0294124565092531,-1.923087419549091e-05,-5.363400444200624e-06,-2.8527453399997835e-06,11941,-14.470874,-19.752482,7.017164
2.041158328322948,1.504042689624768,0.4833386235837466,-0.0012541895804288,0.0019037947352775,0.0189922273958681,-1.9438974637743453e-05,-4.656698916482483e-06,-2.3167538512724456e-06,11942,-13.256529,-20.439173,4.712814
2.0495220392752813,1.4945663235470965,0.1472936895806503,0.0012489253211561,0.0035578190409519,0.0088057074795531,-1.813124070524053e-05,-4.345122227682236e-06,-1.4163683760173165e-06,11943,-12.466546,-18.671511,5.9366
1.9453027969867396,1.3795158543722628,-0.4788463699419826,0.0035167849614768,0.0051763673824487,-0.0002892687041149,-1.6721683833668204e-05,-4.38701163305981e-06,-6.072582388814244e-07,11944,-10.88737,-15.983515,6.726441
1.8373389567937768,1.16991401883122,-0.8738901683924218,0.0052117723922449,0.0062829137983124,-0.0075989702646748,-1.628170307568763e-05,-4.51072539256361e-06,-2.928929657693935e-07,11945,-6.847438,-15.3963,2.020128
1.7344978598773977,1.0727070666198228,-0.878752539174016,0.0062554434877639,0.0066729119974838,-0.0127639642431737,-1.6716800060299783e-05,-4.53694421581905e-06,-4.207871378265759e-07,11946,-8.677325,-11.63457,8.187212
1.645316155087949,1.0490627590123132,-0.918378409717052,0.0068465565851947,0.0064157993992236,-0.0159293435052711,-1.7180290916471683e-05,-4.667543013207797e-06,-6.371404388492866e-07,11947,-8.701585,-8.807763,12.71551
1.5576593846671656,1.0519226852381434,-1.0438369647390144,0.0070828959450704,0.0055910524501067,-0.0173883253737367,-1.702905922385654e-05,-5.130945286986191e-06,-6.317062681981699e-07,11948,-8.868748,-6.401668,15.920682
1.3743084352298371,1.114250651713835,-0.978450672512925,0.0070561996595083,0.0044263101453574,-0.0177645107534607,-1.6012010676690816e-05,-5.621762554996052e-06,-2.5432782304475613e-07,11949,-6.20692,-4.418322,16.03438
1.090053153344942,1.079059865728213,-0.8402341462190241,0.0068620757041949,0.00312044239282,-0.0174432763643912,-1.4199114708588605e-05,-5.61545336341103e-06,4.708123289696831e-07,11950,-5.306795,-2.777519,11.278465
0.8881095295528176,0.9439871295024652,-0.7674090570616285,0.0065476454940733,0.0018421107602227,-0.0165379473214479,-1.2137366663182127e-05,-5.159478835949562e-06,1.3418417409075177e-06,11951,-4.537492,-1.301485,10.095342
0.8451369981491943,0.9007422715266012,-0.6011058715976468,0.0061619386245549,0.0007168075139455,-0.0153568633807621,-1.0573006604241458e-05,-4.709569674295941e-06,2.106401272886886e-06,11952,-3.797351,0.007636,10.777862
0.8240133192256651,0.9168749331134723,-0.302827631093416,0.0057343098223973,-0.0002259018751249,-0.0142697501625777,-9.806466797517633e-06,-4.355981978903524e-06,2.613913320149077e-06,11953,-2.795206,1.090453,11.792638
0.7667764828385977,0.8755118260291737,-0.0534773252959601,0.0053002107440104,-0.0009102818988018,-0.0135042490110807,-9.44288951665287e-06,-3.88316367694991e-06,2.849640108439489e-06,11954,-1.928103,1.983586,11.756728
0.719678134220754,0.8095172091662788,0.0123115066217632,0.0049019563995204,-0.0012391326592522,-0.0131747452827756,-8.912997078414681e-06,-3.3751614345983296e-06,2.9387634786140104e-06,11955,-1.578734,2.841417,10.329608
0.6743918493173995,0.7623346004593196,-0.0323158734170562,0.0045469292228786,-0.001231735763352,-0.0132691437954111,-8.114696045655284e-06,-3.0637004777289493e-06,3.064065910427375e-06,11956,-1.055285,3.630368,10.243888
0.6195227560628482,0.7147109404629636,-0.0719451632839912,0.0042071874424281,-0.0010233343495896,-0.0135735131979277,-7.298775784212287e-06,-2.8186513438506557e-06,3.2641236885768584e-06,11957,-0.361259,4.488304,10.618581
0.5652724069172108,0.6608006916420277,-0.0672283325615365,0.0038811729481647,-0.000668748470473,-0.0140404563840152,-6.604543223797221e-06,-2.42952943137524e-06,3.4379075625482013e-06,11958,-0.031645,5.470739,10.137899
0.5139040224086321,0.6051383712576645,0.0236701085058819,0.0035865010147799,-0.0001677945015246,-0.0147755568991907,-5.975102549824496e-06,-2.0807356916878045e-06,3.599501846081964e-06,11959,0.331947,6.568323,9.892464
0.4642894635117536,0.5633431210342896,0.1448206566996478,0.0033233036690686,0.000412648314452,-0.0157788948510456,-5.270272974496129e-06,-2.034753085797787e-06,3.88301655152313e-06,11960,0.815783,7.775531,9.90527
0.4030894283847303,0.5746516629361756,0.2092060617661963,0.0030843210953774,0.0009670540942696,-0.0170183448471294,-4.3534487415335005e-06,-2.1388462575053366e-06,4.212036246430441e-06,11961,1.133488,9.101562,9.540993
0.3709418352086722,0.6843976186516181,0.2921275630045716,0.0028692725895838,0.0014431809637995,-0.0184814115767998,-3.21078365308124e-06,-2.0224170804074136e-06,4.315429163665716e-06,11962,1.456668,10.507169,9.334877
0.4493193077707321,0.8813924616278946,0.4786561746848917,0.0026810205248422,0.001832225994869,-0.020145510938607,-1.9024410202149328e-06,-1.5603191014594758e-06,4.154863100752294e-06,11963,1.802668,11.968252,8.788905
0.5947187035225731,1.0296025705039522,0.686563417744332,0.002523578592103,0.0021392011275068,-0.0219941215121801,-3.7200615864605246e-07,-9.11911809299778e-07,3.948914990200999e-06,11964,1.916066,13.563313,8.065083
0.6302177878501674,1.032995494734957,0.7740646053789708,0.0024048087274268,0.0024082257569835,-0.0240196156707265,1.4990863014982503e-06,-2.942577531147743e-07,3.807161894634911e-06,11965,2.193373,15.3428,7.543933
0.5596027782199912,0.9816478983088086,0.7475155297554898,0.0023121340712956,0.0026346745417481,-0.0261033669836565,3.762531336584127e-06,2.58034162132682e-07,3.617588710585901e-06,11966,2.232888,17.392297,7.078179
0.5098470869114888,0.9828390672034976,0.7032907421557312,0.0022091950088093,0.0027610753742188,-0.0279980410244094,6.497986650198953e-06,1.0518259558243232e-06,3.2094371037293883e-06,11967,2.333674,19.796351,6.236766
0.400021545605025,0.952799933378347,0.6587633801335824,0.0020455183304023,0.0027378530087343,-0.0293609198870427,9.657234548921142e-06,2.565821787075653e-06,2.562182041522597e-06,11968,2.27112,22.713502,5.517869
0.3685063839942245,0.813159052908912,0.6297790292066634,0.0017447162065227,0.0024983784085786,-0.0296890341713516,1.2674791109544055e-05,5.077958643738065e-06,1.8700533867096904e-06,11969,2.633493,26.265543,5.041648
0.443032292880822,0.7323811933729178,0.5906609770804591,0.0012707619571346,0.002010785093988,-0.0286694589254291,1.4827638839218398e-05,8.411808125563945e-06,1.3631821265205057e-06,11970,2.755348,30.378173,4.449423
-0.2139913818305545,0.705911781467223,0.5181338734019421,0.0006317829086648,0.0012878980278173,-0.0261878347204061,1.6161042886549584e-05,1.2012845988795825e-05,1.0679319674228088e-06,11971,2.829918,34.336146,3.808632
-1.732178669511149,0.3371113774558513,0.6407947180685696,-0.0001598965727524,0.0003470432885973,-0.0221018690642956,1.757709913123751e-05,1.534637089268555e-05,6.490008134454981e-07,11972,6.516424,37.765782,7.520914
-2.752394579584,-0.783841136763441,0.95710105209339,-0.0010660614552178,-0.0007695104469314,-0.0163387306174754,1.9942963828581846e-05,1.8071757739577664e-05,-4.5487840885357204e-07,11973,8.209473,40.615325,9.992273
-2.7279263064368102,-2.6161607289677216,0.8598179362650623,-0.002059895183034,-0.0018971010598662,-0.0089699091819112,2.3458194269465164e-05,1.9881610497550863e-05,-2.524350514833804e-06,11974,6.446275,42.988208,8.359414
-2.647328163522774,-4.309744919072761,0.1542458152019374,-0.0031269652145319,-0.0027229803821819,-0.0002319380599561,2.7661186544708657e-05,2.048509385645029e-05,-5.2300872338516805e-06,11975,-0.107269,44.187487,0.315218
-3.0840169402659035,-4.911742945651983,-0.3581042989868961,-0.0042255782385069,-0.0028081085099449,0.0093838359805802,3.136819760705541e-05,1.9656625532580466e-05,-7.721365518087348e-06,11976,-6.407982,42.748789,-8.176784
-3.63837450537192,-4.50980582352908,-0.1627104033967351,-0.0052913702226379,-0.0015164182958184,0.0190393760246459,3.280671425842528e-05,1.7162895099338822e-05,-8.94843978092586e-06,11977,-9.15555,39.613676,-11.840038
-3.843160307812104,-4.065773307812481,0.215852594198632,-0.0062814129078348,0.0009785237557055,0.0282033742867634,3.07466829798364e-05,1.2856569164589012e-05,-8.30312734390179e-06,11978,-8.343872,36.382439,-9.850636
-3.3524866319055446,-3.9430487290487513,0.3739063248902292,-0.0071695633689258,0.0035668255309753,0.0366304419537112,2.5604540999289797e-05,7.052620904440726e-06,-6.133064548823338e-06,11979,-6.571247,32.527773,-5.408572
-2.2873364989497453,-3.332883130791787,0.5198907264172621,-0.0079255344694189,0.0055535070673069,0.0439314401454343,1.897892987909472e-05,6.953005099650687e-07,-3.474662961870543e-06,11980,-5.13493,27.428855,-0.45111
-1.3761438856551045,-1.9594493211801427,0.6330797170246618,-0.0085243690879119,0.006377926423445,0.0497162973728037,1.2281090456353625e-05,-5.10438560971256e-06,-1.322336964429682e-06,11981,-4.642942,21.226632,2.97235
-0.9104509209209424,-0.7294529675397985,0.5276764226681612,-0.0089049451722269,0.005830274812439,0.0536102910603045,6.0425774092994415e-06,-9.5923729005696e-06,-1.3487876990243428e-07,11982,-5.618949,14.532515,3.940249
-0.5516196932662607,-0.1259328948289853,0.3655844447810759,-0.0089618219333301,0.0043437364791852,0.0552136659710703,1.8705355292197e-07,-1.2375814298182671e-05,1.3274191718824656e-07,11983,-7.310906,7.692662,2.948203
-0.0294741435875632,0.2239744310332184,0.2429080755216748,-0.0085645408124309,0.002538338466557,0.0541921737086873,-5.380168829829107e-06,-1.34481878084325e-05,-2.0876423608897002e-07,11984,-8.577532,0.55205,2.319674
0.7267688158658141,0.5368415960883248,0.1332745420701412,-0.0075361138971143,0.001476944308225,0.0502793038525502,-1.0533724454070324e-05,-1.3354500605269506e-05,-7.315790041872836e-07,11985,-9.853547,-6.552875,3.738278
1.506023547655896,0.7441574674880753,0.2778377970190099,-0.005854412216505,0.0015842307225281,0.0435573732503597,-1.502355968023756e-05,-1.2711202619212794e-05,-1.1428729924370637e-06,11986,-10.892874,-13.312069,5.20852
1.9284012725948227,0.9749975359512502,0.6454296441327472,-0.003675960167986,0.0025517691458406,0.03455427601547,-1.8409564575471964e-05,-1.1645239018416971e-05,-1.3802277705890403e-06,11987,-12.549076,-18.042042,6.328959
1.9666884965800893,1.233548953544123,0.8412501287608232,-0.0012433430473934,0.0040716969942133,0.02421086834447,-2.016179034595723e-05,-1.0232583474149556e-05,-1.3666575367909385e-06,11988,-12.002199,-20.335901,4.303979
1.96177790017507,1.3744219018689885,0.7866597622226604,0.0010257273108719,0.0054818718372828,0.0141047820246117,-2.0257783328910237e-05,-8.924530080724497e-06,-1.0398666432406677e-06,11989,-11.13673,-19.787015,4.136605
1.9830554204452728,1.4335492367497769,0.4644488866193526,0.0029227647331688,0.0064863650835203,0.0050961563761712,-1.9509435225790377e-05,-7.992920263858436e-06,-5.978239217027649e-07,11990,-11.101201,-17.20185,7.086567
1.871807865750194,1.2874241502148784,-0.0590926787100066,0.0044637518129699,0.0072303307117735,-0.0026878995903176,-1.8946589966120463e-05,-7.2157354003968975e-06,-3.367011870223069e-07,11991,-7.42416,-15.571837,5.785108
1.741345799896854,0.9465486687053736,-0.3572036452861838,0.0056280165033424,0.0076590070494011,-0.0089814133028028,-1.8778765913204298e-05,-6.488085144750945e-06,-3.1293237647777653e-07,11992,-7.990119,-12.962148,8.223995
1.3587421962026454,0.8387313032997915,-0.5585557844780629,0.0064663536833364,0.007710295529669,-0.013740945977276,-1.8385277558276107e-05,-6.100979710393823e-06,-3.7970175940639526e-07,11993,-7.763862,-9.915909,9.868449
0.4419937338509793,1.0763751600948537,-1.13300939072008,0.0069882006419226,0.0074030790015487,-0.0169582612397644,-1.735561922870487e-05,-6.103590145358387e-06,-4.042232994256722e-07,11994,-7.518442,-7.223777,13.960223
-0.209713934987883,1.31555307136635,-1.603384946833899,0.0071411940020929,0.0067825765320178,-0.01862542071391,-1.5815677447982758e-05,-6.032214704648331e-06,-2.4952489643448386e-07,11995,-6.111901,-5.138229,14.893197
0.0293716154019312,1.3146591680825352,-1.4322737062397306,0.0069565296880305,0.0060339768119357,-0.0190111760629529,-1.3944110372725254e-05,-5.664435989696206e-06,2.406884228450169e-07,11996,-4.561854,-3.143394,9.947685
0.4779885705727206,1.1514872493637998,-1.1253064237930477,0.0065273548805398,0.0055155930767589,-0.0186634146338374,-1.1922617966955631e-05,-5.387620571941364e-06,1.0232124481828971e-06,11997,-4.003741,-1.48048,8.733395
0.5073198726309066,0.983393792843684,-1.0747290439894597,0.0059160867594026,0.0053506665668605,-0.0178938853000251,-1.0177556528888807e-05,-5.437768900867156e-06,1.7879371149094398e-06,11998,-3.076773,0.024008,9.853143
0.3892773552171392,0.8401578334320627,-0.98708810452816,0.0051773465621992,0.0054303645458919,-0.0168130111474543,-9.122053342302806e-06,-5.493729785864242e-06,2.255653379437577e-06,11999,-2.435021,1.267651,10.208165
0.4244013833674598,0.7184089289591448,-0.7705171546426779,0.0044000495687664,0.0056318790094321,-0.0156120761669801,-8.618394368115778e-06,-5.273422236014282e-06,2.423924251585918e-06,12000,-1.934005,2.389574,10.050184
0.5229293297364275,0.6363720905802946,-0.6284387909881114,0.0036998156228044,0.0057004152563908,-0.014451177086513,-8.123728330959172e-06,-4.842759991512656e-06,2.429939338065507e-06,12001,-1.819392,3.402478,9.010254
0.5788502780839315,0.5964719514071997,-0.614555961018823,0.0031430864816363,0.0055491956940226,-0.0134833878955202,-7.387242551564351e-06,-4.289880727718001e-06,2.3643058524987284e-06,12002,-1.165561,4.286243,9.525697
0.5283486213870463,0.5710608856421754,-0.6320964922464805,0.0027464201122847,0.0052878372479777,-0.0128723794904335,-6.594044249871511e-06,-3.5977770655437784e-06,2.31987170235287e-06,12003,-0.485498,5.118608,9.460897
0.4479518807596181,0.5333681790648239,-0.5813223209149594,0.0025084894137131,0.0049910411172734,-0.0126941648811657,-5.925849562990483e-06,-2.8323818936118755e-06,2.4165807319628736e-06,12004,0.072825,6.018563,8.61294
0.4926248105763228,0.489854319517474,-0.4417892201940305,0.0023835739344385,0.0047887703403088,-0.0129304762628413,-5.330472817498798e-06,-2.1952856982337235e-06,2.660778036481548e-06,12005,0.583501,6.894873,8.53494
0.5618417896929715,0.4397087819508705,-0.2596796011548841,0.0023457360603925,0.0047355416198925,-0.0135883647496715,-4.6874331840680425e-06,-1.783967895889436e-06,2.9001060499609527e-06,12006,1.020792,7.840329,8.33554
0.5490249789442432,0.4214813165765655,-0.1164836645244627,0.0023864409920566,0.004781946284019,-0.0146732194895633,-3.948829940422527e-06,-1.4339636223212852e-06,3.007509403685418e-06,12007,1.484952,8.892158,8.029155
0.6030266029146539,0.5052212290425306,-0.0610737522292518,0.0024543852602006,0.004904083627652,-0.0161006729552698,-3.0911681650204844e-06,-9.411713157878964e-07,3.003430927085086e-06,12008,1.922438,10.037748,7.863233
0.7506800131362334,0.6469773866307903,-0.0434503050554998,0.002462469377405,0.005059111986995,-0.0176966851742681,-2.0940654708766663e-06,-2.939887976111366e-07,2.953945252173977e-06,12009,2.090289,11.341032,7.484863
0.7769065286007331,0.7305166570890963,-0.0018760052230423,0.0023718934519778,0.0052236960868177,-0.0193753842204704,-9.512776607847984e-07,4.1592011665709574e-07,2.8866175129057302e-06,12010,2.434337,12.768012,7.140027
0.7332298981495045,0.7260313164048493,0.0894090691370975,0.0021880897182579,0.0054082471659511,-0.0211292794663656,3.3627822352699135e-07,1.198840403249886e-06,2.83572543281768e-06,12011,2.752693,14.349876,6.862827
0.8879217776036906,0.7088601522821586,0.2125232333408538,0.0019233989413846,0.0056025645496287,-0.0229293522386281,1.786650978728379e-06,2.186601253747963e-06,2.8080055243069505e-06,12012,2.96646,16.179781,6.399589
1.1945365948882765,0.7433092217792225,0.2812365416007945,0.001620910429242,0.0057886272636259,-0.0247664671034897,3.5214635754909045e-06,3.477000420123854e-06,2.6432711687369824e-06,12013,3.154296,18.320533,6.010816
1.3255269601300983,0.7950812978421313,0.2726695244447213,0.0012857558771125,0.0059338286342688,-0.02648627189801,5.679851983749936e-06,5.110393024791191e-06,2.1473840518913453e-06,12014,3.460416,20.884023,5.710499
1.1187964801386288,0.7842529322423903,0.2544400535956749,0.0008803607141705,0.0059802917705524,-0.027754242828271,8.161558510183972e-06,7.224587993638088e-06,1.43282312127862e-06,12015,4.33356,23.946048,5.441445
1.029875177711591,0.679322422237225,0.2473909566091013,0.0003752362651312,0.0058524677002818,-0.0281353496846102,1.0587762802652202e-05,9.929190516989972e-06,8.436075816220482e-07,12016,4.422107,27.611676,5.566877
1.143963505927294,0.584268726778824,0.2519840939044209,-0.0002708132823428,0.0054459661927365,-0.02700700892321,1.2574545845166084e-05,1.2964510078913093e-05,5.287595259120426e-07,12017,4.168666,31.664561,4.61774
0.1867028658685183,0.5980295008431109,0.2366984843529694,-0.0010686692642715,0.0047533379742351,-0.0240687932333238,1.4129464267679917e-05,1.5900522766422012e-05,2.929338073394047e-07,12018,5.724269,35.424925,5.917683
-2.073642560280075,0.3140828237095024,0.2031497371080098,-0.0019897721081284,0.0038787062898343,-0.019377286003988,1.5748294484218005e-05,1.8572874958929576e-05,-2.1105071669084121e-07,12019,8.08589,38.730441,8.365189
-3.6015436261776834,-1.007366164927101,0.3391878016624569,-0.0029973608459979,0.0029808806104699,-0.0130469894590585,1.7997154185889104e-05,2.0904324879626465e-05,-1.2922359807384308e-06,12020,8.620809,41.369274,9.940512
-3.4626261103654508,-3.1175930715541837,0.5691032615214908,-0.0040283021760964,0.0023291560244103,-0.0054259881434697,2.107418645994155e-05,2.2577779311710315e-05,-3.0900526943060207e-06,12021,5.736363,43.598414,7.449772
-3.070837410091311,-4.62275093734166,0.4626727162551524,-0.0050453748127276,0.0020928093076363,0.0031808169166262,2.460902834035301e-05,2.3143079327116343e-05,-5.354336258413248e-06,12022,1.271227,44.52637,2.038801
-3.2791382398253304,-4.818562910342191,0.1713433476499832,-0.0060404139537001,0.0023381682429674,0.0125022015823062,2.758466640191777e-05,2.222387444924391e-05,-7.327092317598389e-06,12023,-4.15033,43.132212,-5.303804
-3.557924994088886,-4.348041074275836,0.2751347712920878,-0.006992458415756,0.0031157952656377,0.0219713010090554,2.868117233416757e-05,1.955445931001664e-05,-8.12229616826896e-06,12024,-7.082912,39.944167,-8.956826
-3.568074378666448,-4.0002577731780775,0.6016915820853166,-0.0078811305078051,0.0043976893218489,0.0307297014498888,2.70838737678192e-05,1.5100328855383354e-05,-7.407033473664694e-06,12025,-7.007059,36.425302,-8.065157
-3.196643778413292,-3.840825392539436,0.6783866257254143,-0.0086796810107711,0.0059407311150629,0.0382594752269879,2.3063210711961615e-05,9.388688672558694e-06,-5.6302675338765e-06,12026,-5.851339,32.496671,-4.80957
-2.43400064184302,-3.2382396513752187,0.6700728793885925,-0.0093494300806737,0.0072316040151787,0.0443560722493931,1.7747824116038698e-05,3.373691638469818e-06,-3.571853795228663e-06,12027,-5.179514,27.456465,-1.121545
-1.8453602199618424,-1.850797160410503,0.7098994490640724,-0.0098513638552988,0.0080788184298553,0.0488031162471743,1.2283149186080155e-05,-2.1702372629150957e-06,-1.8453766073244876e-06,12028,-5.062926,21.471457,1.591915
-1.6276744816833322,-0.4256328629967127,0.6159587252353904,-0.0101415113716706,0.0086015659327297,0.0515378063039192,7.150179306707012e-06,-6.741389279153019e-06,-7.854381682923592e-07,12029,-5.965982,15.205669,2.495896
-1.0783600765153205,0.293721095672033,0.4602607153993838,-0.0101633869258913,0.008767317749598,0.0524054237687063,2.1873087149758907e-06,-1.0016502618308034e-05,-4.363723841528327e-07,12030,-7.305188,8.776784,2.326032
-0.0065988275646058,0.6149897488151747,0.3344257851201713,-0.009845813362537,0.0085235113218684,0.05114149414523,-2.8518920058510583e-06,-1.209803448549169e-05,-5.340995160430323e-07,12031,-8.568612,2.198009,1.718236
0.812058320899939,0.8592434186576405,0.2414765107883535,-0.0090980910923146,0.0080603600757007,0.0476322236703753,-7.834397564956862e-06,-1.3335798983359917e-05,-7.343314752026813e-07,12032,-9.912617,-4.23802,2.858907
1.043582659769908,0.962782873910544,0.3336793018379211,-0.0078022231513278,0.0078016371317606,0.0418727480426511,-1.233357640491905e-05,-1.3874297334422493e-05,-8.961055467245208e-07,12033,-11.024014,-10.552206,4.264816
1.1956660179171406,1.2618839035046827,0.4955135179332517,-0.0059676710821166,0.0078856385743992,0.0340967950167909,-1.5881701663768774e-05,-1.3761735218254253e-05,-9.97858390192188e-07,12034,-12.883978,-15.011823,6.074807
1.5317719465443238,1.7684566939586963,0.3694855308308872,-0.0037509851654912,0.0081865838864387,0.0248765611849599,-1.7935185508902954e-05,-1.3194914293199502e-05,-9.099904778892698e-07,12035,-12.769805,-17.853027,4.651779
1.773706778958593,2.035800279621628,0.0725817920831572,-0.0013960574419062,0.0085951009310273,0.0151243086665043,-1.8071591106728384e-05,-1.2361513107914495e-05,-5.438515944544376e-07,12036,-12.306047,-18.549338,3.558556
1.6946050202278284,2.108856196509012,-0.0663791420846552,0.0006917765550614,0.0088828642905826,0.0062566390559914,-1.668788706800684e-05,-1.1310864298357264e-05,-1.0003144421140976e-07,12037,-12.177032,-16.827537,5.236036
1.4490602969792414,1.927222151430076,-0.1307991584042308,0.0023286272508155,0.0089622920139854,-0.0010097443711621,-1.5101539819648509e-05,-1.0198884603326968e-05,1.6150188168126598e-07,12038,-9.655818,-14.549227,4.564062
1.4418816545644824,1.2364299948923496,-0.2039171014882683,0.0035692014827351,0.0089185266543366,-0.0066953362217582,-1.4311139140308654e-05,-9.35504160612908e-06,2.680205166077848e-07,12039,-8.243107,-13.309579,3.045473
1.5987569954887757,0.6203131284349158,-0.2404505093397765,0.004464780791672,0.0087865953272202,-0.0108410332017845,-1.4015709306641451e-05,-8.882980868122595e-06,4.064337454568796e-07,12040,-8.030633,-10.652475,4.22127
1.4533525406125796,0.777072475000071,-0.4521213418425018,0.005179727177099,0.0086279261668052,-0.0138748621526947,-1.347954003877053e-05,-8.594753532890405e-06,6.337369790274235e-07,12041,-8.625135,-7.99596,8.021448
1.0815028450184982,1.2375182676503749,-0.861285752332084,0.005765860654016,0.0084713199663775,-0.015959294214189,-1.2599510994309669e-05,-8.333404912466571e-06,9.28184202320416e-07,12042,-7.80147,-5.930672,11.036103
0.7052274845627431,1.3059247879139644,-1.0910733122025955,0.006138403047786,0.0082876889243537,-0.0169459361786497,-1.1513515055780686e-05,-7.928867102450577e-06,1.318361753793549e-06,12043,-5.946098,-4.201947,8.407249
0.3180359390586092,1.087241732843782,-1.025757083754586,0.006279516994304,0.0080759846189944,-0.0170186559641731,-1.0126131219189088e-05,-7.158382359634612e-06,1.7308421674206084e-06,12044,-5.440282,-2.793517,4.739085
0.08403124090623,0.8222482033290628,-0.8892881111682291,0.0061788388367832,0.007841250116405,-0.0165660205439646,-8.548290459552034e-06,-6.106623244810431e-06,1.9384740177838945e-06,12045,-4.579515,-1.209333,5.823286
0.0760590676926076,0.6039666882376733,-0.7744605520606461,0.0058584048124176,0.0075823545165492,-0.0158019784874499,-7.341916918088924e-06,-5.214531481291368e-06,1.8668279526425084e-06,12046,-3.800181,0.149393,7.479716
0.2288763833381525,0.5098312630152484,-0.6546313020328403,0.0054028039883917,0.0073017527626936,-0.0148428545465836,-6.865593979303684e-06,-4.773766126952219e-06,1.7295237470805075e-06,12047,-3.384817,1.281312,7.143678
0.5444071348979976,0.47082432054423,-0.5703384954309074,0.004914039408964,0.0069940100124452,-0.0138289129335228,-6.731774792385122e-06,-4.637249838505748e-06,1.727341958510481e-06,12048,-2.921841,2.304098,7.32954
0.8096705884377915,0.4318119399482804,-0.5291696428506505,0.0045367870854202,0.0066450928142138,-0.0128572994737819,-6.375119853365915e-06,-4.493201517380654e-06,1.7970696516467516e-06,12049,-2.73201,3.248051,7.058875
0.7846173030732821,0.4568192623229692,-0.5024514650274519,0.0043364276384495,0.0062523118738353,-0.0120455622305947,-5.802210050460457e-06,-4.156765642027977e-06,1.7835098413469705e-06,12050,-2.411325,4.063755,6.845529
0.6679393400893845,0.5575083207300029,-0.4874348882575428,0.0042863681495805,0.0058233196333215,-0.0115361186804218,-5.376277980207996e-06,-3.56249336907237e-06,1.708627075688824e-06,12051,-1.790526,4.883445,7.450843
0.6635704471941195,0.6037704351311513,-0.4610429680424857,0.004344019613637,0.0053669089919197,-0.0114187251831314,-5.193072179641271e-06,-2.706689900273448e-06,1.6702560548016334e-06,12052,-1.19297,5.745943,7.305407
0.6691129011177183,0.5448640534554248,-0.4064121705654588,0.0044060628884979,0.0048984333969029,-0.0117372253636104,-4.99538525008578e-06,-1.7193833706231404e-06,1.6572258668096811e-06,12053,-0.434123,6.616364,7.200646
0.673842839990005,0.4833721436254322,-0.3241283536733546,0.0044255352554009,0.004430271232388,-0.0125202720464612,-4.58848078779538e-06,-8.432531036557243e-07,1.6482402114524285e-06,12054,0.294126,7.478889,7.230762
0.6569582869492752,0.4503184942623802,-0.2304174151116534,0.0044183573809114,0.0039716821793122,-0.0137595342647727,-4.033532633471706e-06,-1.638965126805955e-07,1.6438365038989031e-06,12055,0.797764,8.398563,7.09299
0.6061859512714224,0.4144234204717484,-0.1684416043183638,0.0043666725652435,0.0035385485190871,-0.0153797677484006,-3.425320887579755e-06,4.543229567603074e-07,1.5724085838402913e-06,12056,1.140117,9.397779,6.828746
0.7466408309258481,0.4106879465394021,-0.1583528946234755,0.0042472577648828,0.0031521837022118,-0.0172215235691365,-2.7190635763962525e-06,1.0653552660451229e-06,1.3806101628305825e-06,12057,1.450695,10.484842,6.547439
1.1048780642218254,0.5076888191078435,-0.1092269185762681,0.0040471242935177,0.0028213115716914,-0.0192001986711786,-1.806013805557676e-06,1.5345234620185708e-06,1.1408256664219468e-06,12058,1.654741,11.695209,6.141222
1.435686676885013,0.6644723167173685,0.1335839429006339,0.0037542191860897,0.0025416903569994,-0.0213007150255864,-6.522472430233023e-07,1.811508588358796e-06,9.687278768185617e-07,12059,1.836749,13.071324,5.615453
1.5715713980796748,0.7257506946189546,0.491669851869135,0.0033705733180456,0.0023029179824735,-0.0234743901787159,7.940208823459216e-07,2.1554266686171765e-06,8.206537195365634e-07,12060,1.971281,14.701757,5.199479
1.577029728163304,0.6758373969824933,0.6692701443096771,0.002915840053776,0.0020816387238904,-0.0256740776148577,2.775099056231083e-06,2.9865098577841744e-06,4.283801827920993e-07,12061,1.920295,16.69602,4.466485
1.508632824542857,0.591667062105371,0.6191239281853567,0.0023979839098167,0.0018573575917014,-0.0277159233006073,5.492821375884103e-06,4.613833403324687e-06,-4.0944428086799305e-07,12062,2.158045,19.209116,3.556047
1.261294446539459,0.4940794973089062,0.5546185491589898,0.0018164215548551,0.0016109499775945,-0.0292416698088998,8.682404126509833e-06,7.162655414286192e-06,-1.563711322143634e-06,12063,2.248858,22.436704,3.224044
1.2113656743511705,0.4596472436741434,0.533801344531067,0.0011809056444043,0.001308488270431,-0.0297771761918827,1.1614194299853865e-05,1.0498168786341908e-05,-2.7183777088953982e-06,12064,2.932408,26.35033,2.507886
1.325660019568568,0.4170868086158662,0.5087379450282583,0.0005071599705414,0.0009015307872388,-0.0286480557533596,1.3650917160402427e-05,1.4145670925293476e-05,-3.6277359675675978e-06,12065,1.037356,30.811805,-0.301426
0.1964226822135175,0.1436234203928231,0.4949286061568456,-0.000194254292381,0.0003762199987434,-0.0255323992024215,1.4846545691482904e-05,1.751080199339288e-05,-4.26365288631395e-06,12066,2.03556,34.611663,0.213064
-2.2989011068607605,-0.6942525607755892,0.4175468460705859,-0.000915810388359,-0.0002444288882225,-0.0204969430381385,1.5874823634364857e-05,2.021499350629579e-05,-4.908403822660052e-06,12067,4.753147,37.589183,4.230938
-3.9213719075359417,-2.492390175329482,0.1894131224717786,-0.0016493152762149,-0.0009211393130844,-0.0136813906389497,1.7418894617183375e-05,2.2169706058140903e-05,-6.04876896165407e-06,12068,5.028822,40.131274,5.231411
-3.6586417184550535,-4.5804169492257785,-0.1309264386254706,-0.0023879881447384,-0.0015793956701009,-0.0054905917286236,1.975927053099966e-05,2.3291153658856463e-05,-7.949562589994838e-06,12069,2.816937,41.632487,2.867801
-3.1503080237656547,-5.471457275650481,-0.3908141819801506,-0.0031113210170647,-0.002096393559352,0.0037089766885697,2.253722066732439e-05,2.3202151294301925e-05,-1.0231816854141756e-05,12070,-1.902611,41.462703,-3.670844
-3.452238798998036,-5.032460419603169,-0.3946913231900099,-0.0037823152184894,-0.0022858630295933,0.0135736841848893,2.462590274360022e-05,2.1416927734543464e-05,-1.1984680859251371e-05,12071,-6.232539,39.060282,-9.605092
-3.6566664066478793,-4.452227831423992,-0.1224152470679048,-0.0043532304214337,-0.0020619765334276,0.0234168982397493,2.462687787352072e-05,1.7764897039404588e-05,-1.2394191875159863e-05,12072,-7.417085,35.560412,-10.961186
-3.133458823573952,-4.2614290224289455,0.1522190973331591,-0.0047574502037582,-0.0014456389880452,0.0322066234882057,2.179087488618987e-05,1.2532645313467364e-05,-1.1245658798656786e-05,12073,-6.997935,31.799972,-8.97638
-2.416334487241727,-3.8711586887664335,0.2288371121089205,-0.0049601936305541,-0.0006291256362247,0.0393461840193716,1.6537035062976896e-05,6.381733313786025e-06,-8.934642347793276e-06,12074,-5.969424,27.376209,-5.842692
-2.0837841043811083,-2.6437247941826483,0.1986819645457287,-0.0049616459785657,-6.134092028401144e-05,0.0446512613884646,1.0127455157018764e-05,2.536147721953523e-07,-6.241868740024594e-06,12075,-5.360927,21.860799,-2.952396
-1.967454317873245,-0.8901823234459152,0.1607700574512465,-0.0047675230710033,-0.0001559247618538,0.0479513345228768,3.735445091256414e-06,-4.864563696329215e-06,-4.017599470746798e-06,12076,-5.318109,15.717849,-1.107141
-1.799497222672036,0.3392019710606997,0.090617137564731,-0.0044063324410251,-0.001353854130016,0.0493056217434682,-2.170972344499788e-06,-8.451279083470893e-06,-2.6956640470646142e-06,12077,-5.91392,9.405203,-0.759753
-1.58983242359446,0.8315355810966633,0.0297580713197398,-0.0039014346384675,-0.0037238962424274,0.0486859901396964,-7.488379285041059e-06,-1.0673087306770458e-05,-2.081828381337998e-06,12078,-6.376171,2.848903,-1.579561
-0.8743023042135236,1.3095159999318824,0.0693863996380085,-0.003271763870279,-0.0068444229874205,0.0459687513507145,-1.1812156292853705e-05,-1.193843925153313e-05,-1.7889040268243917e-06,12079,-6.856438,-3.620498,-1.835656
0.4616381335109469,1.846001314835275,0.1653935143528653,-0.0025642403721714,-0.0099578754057094,0.0412924026106252,-1.440209120725641e-05,-1.250030013520888e-05,-1.7000769446201408e-06,12080,-6.944339,-9.982895,-2.674916
1.5221553861719197,2.0951624106711098,0.2304614209733871,-0.0018528065024602,-0.0117203499776881,0.0350265345159544,-1.4574667163156753e-05,-1.2472951379209932e-05,-1.8988687431282348e-06,12081,-7.18491,-15.356678,-4.77274
1.8175368590830865,2.1178820186046745,0.2417517829584345,-0.0011841541005271,-0.0114844970924386,0.0275448393576223,-1.215517527681354e-05,-1.1927022838364735e-05,-2.330122555117638e-06,12082,-5.873211,-19.466083,-10.702975
1.817444749820007,2.034193164017122,0.1506799958822434,-0.000581313886139,-0.0093305039902578,0.0193133346075328,-8.113150399089821e-06,-1.0971080868961888e-05,-2.728262916257911e-06,12083,-2.370615,-21.447133,-18.58337
1.7018700927228854,1.9826681540259607,0.0605657082603681,-7.23162556347111e-05,-0.0052167742181789,0.0110600525380474,-4.5991046437889686e-06,-9.831207100896778e-06,-2.848967787238711e-06,12084,0.838817,-21.067448,-25.018497
1.4047280388575285,2.012279762205438,0.2084974562017895,0.0003224807268329,0.0006680392175799,0.0038133492685429,-3.672387615879788e-06,-8.872324703849023e-06,-2.5003326722694026e-06,12085,1.983616,-19.428324,-27.141454
1.9525302693938584,1.8938773906039132,0.5095040681285983,0.0005988106473743,0.0072865189817014,-0.0019101363164728,-5.711159068874817e-06,-8.415364220886498e-06,-1.5355492305135495e-06,12086,2.531791,-18.207809,-24.665602
3.455304170230775,1.6418416344868572,0.6879868118837182,0.0007706243157436,0.0126201528415062,-0.0061307670361855,-9.221282767786867e-06,-8.416806684775211e-06,-1.596106900171121e-07,12087,-1.341951,-17.162454,-14.849368
3.63144427327144,1.509299174118243,0.5712893802803527,0.0008807428770892,0.0157511324630811,-0.0089928725627894,-1.2285034463062546e-05,-8.482959859316722e-06,1.07684452024681e-06,12088,-3.08683,-14.822113,-9.88912
1.93162958852326,1.4536963405536234,0.0234871446813693,0.0010111954592917,0.0168045991227234,-0.011038769733695,-1.3784000372609613e-05,-8.223127895243159e-06,1.807459155933528e-06,12089,-2.595172,-13.075108,-7.676885
0.6945075626871805,1.3141460725683292,-0.7038914883016096,0.0011902088384946,0.0161237603586831,-0.0124716752062018,-1.3479345179670357e-05,-7.4681569349531295e-06,2.1452626520773274e-06,12090,-0.959143,-11.310893,-12.223184
0.5012824091502277,1.1328141209942273,-1.0612439110449403,0.0013907822163291,0.0148772090253163,-0.0131296411572449,-1.194047686345168e-05,-6.321982278058738e-06,2.4245092499521195e-06,12091,-0.360522,-9.61805,-14.412658
0.0368934867220451,1.0041576385720634,-1.0552254490309712,0.0015839752637916,0.0135916179232082,-0.0130912912580181,-1.0353386232000793e-05,-5.1280023869767e-06,2.861142039574562e-06,12092,-0.040469,-8.384695,-13.092142
-0.3123789728677822,0.9416406019961622,-1.0223178536729778,0.0017112187209263,0.0121346245580041,-0.012511033598423,-9.652125800994291e-06,-4.216765051040117e-06,3.5495823871664136e-06,12093,0.824539,-7.203857,-11.649997
0.2387606931854805,0.8991238261917515,-0.916629941137981,0.0017450293390464,0.0107976477699864,-0.0115159243818407,-9.750190982694418e-06,-3.644254622979741e-06,4.535961617192473e-06,12094,1.468258,-6.014625,-12.799682
0.9169292549704572,0.8102741422312144,-0.7227797664369887,0.0016944947282573,0.0099796755107741,-0.0102801648028647,-9.917044530057628e-06,-3.2567840125200472e-06,5.716654527305422e-06,12095,2.236735,-5.013692,-13.860482
1.1534495230091624,0.6765635133388512,-0.6582028310051932,0.0015538632871017,0.00951995607092,-0.0089797529117876,-9.83613608833991e-06,-2.993738929028138e-06,6.896947342591779e-06,12096,2.661108,-4.285928,-14.001472
1.1566684176064004,0.579542399005432,-0.69283424351087,0.0013188279305513,0.0087166530330547,-0.0077976334920208,-9.81255919227522e-06,-2.956999040020674e-06,7.992048971730033e-06,12097,3.167682,-3.757197,-13.557817
1.0537084675241128,0.5438468042099978,-0.6911611361172164,0.0009912458710681,0.0074201265848273,-0.0068696642147785,-9.98353029462106e-06,-3.1264715081417747e-06,8.991160217527827e-06,12098,3.382836,-3.129572,-14.431519
0.9468183014280046,0.4841058841014791,-0.6435642682514332,0.0005751606437696,0.0059431098983423,-0.0062688770702116,-1.0063200422713378e-05,-3.3102760307120853e-06,9.859666346149098e-06,12099,3.496403,-2.587133,-15.243393
0.8778578050144392,0.3799064980664706,-0.5382774328861715,8.821334529208005e-05,0.0044239473837564,-0.00603512689215,-9.928290682539154e-06,-3.42984853295488e-06,1.0592243996679011e-05,12100,3.557783,-2.074015,-15.784211
0.7791138139464413,0.3173057376620641,-0.4372739244634442,-0.0004356135592088,0.0030571958039788,-0.0061437744215306,-9.776831769321294e-06,-3.547474904243836e-06,1.1270882472899706e-05,12101,3.543274,-1.540368,-16.334634
0.6657434719004734,0.2981700760607446,-0.4112300430686291,-0.0009549038380681,0.001891880976431,-0.0065507911566966,-9.726549369329252e-06,-3.6407658702011695e-06,1.2035906832295818e-05,12102,3.41145,-0.960684,-17.100885
0.5802217492721138,0.2653016305636398,-0.4042137794180336,-0.0014144752831306,0.0007462765288985,-0.0071780428963817,-9.74992610733174e-06,-3.680974370385655e-06,1.3014253450331148e-05,12103,3.405526,-0.351254,-17.757325
0.5250483610682406,0.228598689443319,-0.3827188785556313,-0.0017322253688836,-0.0005675181864026,-0.0078406507295055,-9.849011107147994e-06,-3.896531344067786e-06,1.4299139507784327e-05,12104,3.33312,0.265179,-18.386811
0.4515727631581602,0.199200952510039,-0.3650659588317299,-0.0017922952604666,-0.0023409091761348,-0.0082276786862912,-9.980758521112007e-06,-4.534131506073488e-06,1.587243011717162e-05,12105,3.152941,0.861815,-19.14051
0.2888638764622272,0.1629053194539618,-0.3415545495307084,-0.0015357124976104,-0.004711849118912,-0.0082037127405053,-1.0004616659595064e-05,-5.433161979816445e-06,1.7522668703318365e-05,12106,3.035785,1.467125,-19.781774
0.0599810630277835,0.1217850760075673,-0.3223399880724362,-0.0009635555763287,-0.0076299755629004,-0.0078104184087738,-9.827514473706967e-06,-6.245653787729193e-06,1.904986660143869e-05,12107,2.812364,2.126295,-20.516233
-0.1518695611141859,0.0652630500951507,-0.3497383297198932,-8.936539503213081e-05,-0.0110576034189792,-0.0071032467598262,-9.453986981154576e-06,-6.857588973789902e-06,2.0452718803709835e-05,12108,2.515039,2.855878,-21.602862
-0.3209001989961921,0.0065186668956809,-0.454019064638675,0.0010304794600586,-0.0148827072491039,-0.0062417090813517,-8.88938784547885e-06,-7.247583245188812e-06,2.177076306860048e-05,12109,2.352425,3.655214,-22.660805
-0.4908656885169164,-0.0316289906000152,-0.619131768693132,0.0023536933132964,-0.0190615650808029,-0.0052795564185586,-8.044867951393655e-06,-7.20476453056244e-06,2.2937291353350995e-05,12110,2.235573,4.466027,-23.99381
-0.6841498062446546,-0.1225499779535549,-0.7373983838213194,0.0038507165773631,-0.0236383434174046,-0.0041489221818841,-6.714871209875904e-06,-6.464030934397243e-06,2.380513128001937e-05,12111,2.191297,5.260427,-26.02842
-0.8440454946794249,-0.2920805689171434,-0.7204900598430114,0.0054444304232857,-0.0286025250958622,-0.0028349744089579,-4.617896827401119e-06,-4.936464352442075e-06,2.4108421750560955e-05,12112,2.042564,6.000689,-28.183077
-0.9095614275810532,-0.4100336837071933,-0.631726722268601,0.0070144062534565,-0.0339257520349097,-0.0013215142340265,-1.5218352430994836e-06,-2.706602264728657e-06,2.344467889728749e-05,12113,2.50808,6.397967,-31.760471
-0.8719745742802847,-0.4129976413618614,-0.5372621678717829,0.0084651895257734,-0.0394336988927735,0.0003727491913077,2.5696654933260664e-06,6.42245390006058e-08,2.145011953011841e-05,12114,3.058583,6.42898,-37.14584
-0.8359453283635563,-0.392684976398525,-0.4364791123013744,0.0097158816543138,-0.044757193725224,0.0021686486466464,7.386633034754057e-06,3.1665461687369744e-06,1.7982985698439397e-05,12115,3.599338,6.087359,-44.35394
-0.865480724514939,-0.414860615910003,-0.300112974571152,0.0106606285055599,-0.0493809057933259,0.0039751814901913,1.2473545628283395e-05,6.308256781596856e-06,1.3173633337995696e-05,12116,4.282331,5.35704,-52.410878
-0.6984775841426876,-0.4473311209046733,-0.0092125793626377,0.0111774037807003,-0.0525492584438305,0.0056645199166794,1.7202405260559563e-05,9.128702864898409e-06,7.435955386771149e-06,12117,4.9947,4.450875,-61.228114
-0.1518993246091601,-0.4560993570536992,0.423883493918494,0.0112021720781784,-0.0539095414111933,0.0071611484677418,2.091184464321263e-05,1.1242705702793528e-05,1.4655180363720497e-06,12118,5.936758,3.513893,-70.113466
0.4348402411258325,-0.4339499715597336,0.7096882897707427,0.0107335604542732,-0.0535489293848735,0.0084505243620804,2.3258633103028085e-05,1.2385542690613011e-05,-3.997159945839452e-06,12119,6.858999,2.621314,-78.468786
0.7219050900468791,-0.3632092835282524,0.6987935480558389,0.0098098620352285,-0.0516249175363542,0.0095153828697959,2.4358020604769182e-05,1.2586620178870104e-05,-8.572425104764743e-06,12120,7.769285,1.833715,-86.244071
0.8241762829846643,-0.2476228314346137,0.6324155976664767,0.0085419657818163,-0.0485831616931436,0.0103647322357262,2.446616135860313e-05,1.1971328957629865e-05,-1.222443234302348e-05,12121,8.606532,1.044472,-93.128337
0.9201651708262344,-0.1595794026661901,0.7250952239728082,0.0069916652932261,-0.0446598017296161,0.0109852889224095,2.3713676733260577e-05,1.0573757485390854e-05,-1.4931841822534066e-05,12122,9.384028,0.206624,-99.148748
0.997772415780088,-0.1522955617813815,0.8849116005268551,0.0051748599601787,-0.039861648906245,0.0113358517923849,2.2263682201191656e-05,8.629004370111117e-06,-1.6739932875171957e-05,12123,10.027827,-0.628374,-104.719914
1.0404172153906952,-0.1752004365443826,1.0278258402093414,0.0031572450803365,-0.0344111194667137,0.0113956195897932,2.0497995904297615e-05,6.665957621603955e-06,-1.7847839520722824e-05,12124,10.384063,-1.481903,-109.685351
0.9308793817283828,-0.1980006253598691,1.20800767233472,0.0010329312353618,-0.0286465057686561,0.0111525837543588,1.885042234737466e-05,5.000288329504706e-06,-1.821172664899436e-05,12125,10.499457,-2.396627,-113.593333
0.5370648019399418,-0.2357143450631646,1.3877774586112035,-0.0011091570033512,-0.0228702783312263,0.0106288519717102,1.751741138050833e-05,3.48718878773516e-06,-1.7497004933803243e-05,12126,10.330851,-3.36935,-116.081838
0.0929428280569957,-0.2414627998563872,1.4377720942162988,-0.0031704765799546,-0.017413392286609,0.0098946789494668,1.65118883199607e-05,2.0579021603837284e-06,-1.5793382152330325e-05,12127,9.751163,-4.102272,-117.620214
-0.1063533337583185,-0.1936481523261861,1.392742356096056,-0.0050321192643715,-0.0126702947249608,0.0090587915095072,1.588787912500732e-05,1.0242331216972911e-06,-1.382766946066301e-05,12128,7.955158,-4.847163,-116.664877
